PacketCounter,Acc_X,Acc_Y,Acc_Z,Gyr_X,Gyr_Y,Gyr_Z
760,6.636974335,-1.41359961,8.8104496,62.34043503,50.23754501,26.67728996
761,6.566334248,-0.64605099,8.532575607,71.41172028,41.73455429,23.66131401
762,7.114994049,0.056727543,8.41929245,72.10897064,33.19236755,20.29373741
763,6.82199192,1.083584905,7.157127857,76.12162018,23.27814102,17.61972809
764,7.415051937,0.713917255,7.487998486,87.18087769,26.40326691,14.58359814
765,8.203440666,-0.079269752,8.086386681,74.00069427,26.14076424,11.64451504
766,8.682712555,0.937243521,7.002512932,60.7135849,22.49776649,13.31971169
767,9.089378357,2.796573877,6.689618111,48.59594345,14.30869198,14.62885666
768,10.36452007,2.082287073,6.520675659,30.15269661,6.970980167,15.25855541
769,11.28556252,0.131396815,6.244560242,10.84177399,10.97027302,9.799513817
770,11.58022594,-0.027849568,6.084113598,18.24833298,12.43616009,5.410429955
771,12.24542236,1.136123896,6.060058117,31.4740448,8.907534599,5.563066959
772,13.41959953,0.595711291,5.786234379,17.27658844,7.262829781,4.387992859
773,14.54830551,-0.291876137,4.956358433,1.781836987,31.46799278,-0.640537441
774,14.22081661,-0.933988452,5.954236984,-33.04652405,54.6354332,-12.77280998
775,12.38406181,-1.066200376,2.518151522,-56.30124283,19.15798378,-7.924183369
776,11.42271805,0.248621315,2.114200592,-10.25369072,-3.200551748,-2.216421604
777,12.41586494,0.51857549,3.147845984,-6.455922604,-20.15857315,-4.283923149
778,13.12395954,-1.174911261,3.252622366,-33.04511261,-19.5094986,-1.433703899
779,13.69775772,-1.304532886,3.848806143,-31.65868187,3.677235126,-5.486081123
780,13.58489132,0.464215189,4.785135746,-23.2652359,-1.554732203,-3.468298912
781,11.63072014,-0.205660298,4.965993404,-18.56434631,-20.99821091,-6.356937408
782,9.097836494,0.840362251,5.457368374,12.3437233,-23.67470551,-8.900259018
783,7.82038641,2.193990231,7.451872826,14.28952217,4.495166302,3.399724007
784,5.819646358,0.32770136,9.364912987,-10.10291481,34.34939575,21.09819984
785,4.105744362,-1.683610082,8.161543846,-11.83516598,61.89643097,17.34080696
786,4.155007839,-1.786678672,9.357378006,-3.747586012,53.26941681,7.041137218
787,5.554960251,-1.39170289,9.825688362,-8.418391228,55.65578842,11.20448971
788,6.428913116,-0.053529561,11.1421299,-18.1938343,54.92245865,12.26004601
789,5.394775867,0.884949684,12.17932796,-16.06258965,62.59791946,9.883890152
790,4.947431564,-0.935808122,12.86479568,-25.40447426,58.48202515,5.206297874
791,4.958132267,-0.476324707,10.01181221,-43.79920197,42.99225998,-0.453594089
792,3.98726964,1.46587491,7.621049881,-13.61575985,33.12340927,5.449901581
793,2.812337637,0.618717849,8.38848877,-4.912238598,14.8882618,6.762265682
794,3.51704073,-0.278973937,8.538648605,-26.10972404,15.79913616,3.644859314
795,4.080898285,-0.395509034,8.453543663,-26.00394821,24.38339233,5.743590355
796,4.754570007,-1.494532704,9.354369164,-24.76581383,33.89770508,1.84085381
797,3.994979143,-0.933744192,9.367163658,-28.56962013,37.63739777,3.818390846
798,3.458236217,-0.198788628,9.216122627,-23.27164459,36.15149689,4.66969347
799,3.768053532,-0.569148064,9.297431946,-16.30061531,25.42415237,6.101995945
800,3.257441759,-2.054868937,9.339868546,-17.57628441,23.79186058,6.170163631
801,2.851538658,-2.833171368,9.195440292,-16.80804443,28.31597137,7.730090618
802,3.733929634,-2.512660503,9.692709923,-8.125244141,28.4825058,4.841231823
803,3.735951424,-1.958530903,9.843548775,-0.302025467,22.12736702,4.37408638
804,3.841936111,-1.81676352,9.78701973,7.239864826,12.19998455,2.733460188
805,3.588351727,-1.503450274,9.622846603,12.44348907,12.12617397,2.486630917
806,3.553316116,-1.264835477,9.471852303,11.12438107,13.03118515,-0.816789806
807,4.081730843,-1.24657023,9.409424782,12.6154089,16.91124153,-0.132072106
808,4.0255723,-1.385479808,9.564422607,11.73827648,25.95242882,-1.248007894
809,3.60794282,-1.311001897,9.658173561,8.20191288,37.61621475,-2.156741381
810,3.548120737,-1.01094532,9.459261894,5.943439484,46.07813644,-0.929684043
811,3.300449133,-1.098883867,9.45529747,3.345457792,44.18819809,1.611747861
812,2.997833967,-1.080237031,9.56293869,-5.889192581,43.07603836,4.084951878
813,2.694326878,-0.931478918,9.976550102,-19.44453812,54.61695862,5.984088898
814,2.53010726,-0.895411253,9.999516487,-36.70162964,61.32256699,8.213637352
815,2.316022635,-0.744122326,7.942660809,-39.23270416,48.88025284,12.80568314
816,1.666296721,-1.244799256,7.950264454,-24.41061783,41.97214127,14.07765198
817,1.660271645,-1.7935462,8.218296051,-31.13679314,43.6305275,14.00185013
818,1.780735493,-1.853426218,7.889550209,-17.0785923,41.11948013,14.97075844
819,1.725948215,-1.296849847,8.815678596,-11.96838474,42.21622467,17.52819252
820,1.630431414,-0.457323015,8.97021389,-27.15866852,38.00040817,18.78071213
821,1.064157605,-0.776405394,8.411654472,-30.3088932,31.77291679,18.76681328
822,1.125016809,-1.023569107,9.285806656,-36.73032761,25.90028191,19.36069298
823,0.928742528,-1.127212524,8.641167641,-35.05783081,18.51309776,20.23829269
824,0.788529038,-1.466715693,8.692025185,-31.83072662,14.35002232,18.38354492
825,0.903167784,-1.498169541,9.416940689,-40.95274734,8.799308777,13.13003635
826,1.055793047,-1.520758033,9.886466026,-51.06126022,-5.496244907,12.80834007
827,0.755505204,-2.143816948,9.623379707,-38.69101334,-24.26400948,11.55994034
828,0.709890544,-2.742306948,8.217534065,-22.74211502,-32.02401733,8.712278366
829,1.025699973,-4.042621136,9.290195465,-39.44698334,-29.73757172,3.581832886
830,1.631971002,-3.989270449,8.896821976,-39.97793961,-37.82653046,0.816163898
831,2.165649176,-3.885798693,9.240457535,-31.23758698,-40.83809662,-6.582193375
832,2.079828024,-3.388120651,9.401421547,-24.09041786,-47.55710602,-11.17126179
833,1.731827736,-2.895118475,9.29188633,-19.60028076,-57.8651123,-16.68891907
834,1.759682655,-3.028980494,9.699471474,-16.92999077,-69.71424866,-18.98484802
835,2.330963135,-3.194795132,9.356210709,-10.56152821,-80.22327423,-20.5774765
836,2.815193176,-3.307220459,9.806348801,-2.719378233,-87.47548676,-22.14424706
837,3.234347343,-3.214511871,9.658260345,6.682853699,-97.84233856,-20.65054893
838,3.639368773,-3.430775166,10.13243484,16.12666512,-107.5832214,-21.31833458
839,3.970491886,-3.299438238,10.15875053,26.42490196,-119.7854538,-20.72532654
840,4.322363377,-3.437091351,10.06803894,44.04434204,-128.4909515,-20.14704704
841,5.05882597,-3.561237812,10.70612049,50.13604736,-136.5002899,-19.79493141
842,6.232404709,-3.265584946,11.2786808,42.94475174,-144.1897736,-16.1509552
843,6.739440918,-2.590573072,11.78897285,41.576931,-147.9650116,-10.67424297
844,7.243768692,-2.411732435,12.93814468,46.47549438,-138.8642426,-13.16296005
845,8.276573181,-3.498356104,13.68183613,33.00661469,-126.84478,-15.94794846
846,8.950356483,-3.565069437,12.3709383,13.35887051,-117.8241501,-17.68501854
847,9.14558506,-2.077573776,11.18097591,1.435245752,-105.0862122,-17.28857231
848,9.532382011,-1.68413496,9.876935959,-18.40316772,-73.91589355,-14.97314453
849,10.04177666,-1.398987651,8.174937248,-23.29944038,-50.4838829,-8.075798988
850,10.82185268,-3.083138943,8.780537605,-30.8828125,-24.93478012,-2.982154369
851,11.45223045,-3.21771884,8.687486649,-17.46002007,4.894010067,-1.641366243
852,12.04142761,-2.378843069,8.411945343,3.01108098,25.3345108,6.056976318
853,12.404809,-2.045732498,6.879422665,-1.677060127,53.05606079,12.87885857
854,12.01333523,-2.723434448,6.020768642,-12.89650345,90.78471375,15.98403454
855,11.36653805,-2.112727165,5.246432304,-10.1855154,126.6221313,15.87161255
856,10.11060429,-1.28976059,4.470562458,4.124631882,149.1266327,17.94959641
857,10.06724548,-1.846446514,4.061540127,-2.007441282,149.5234222,20.67717361
858,8.916250229,-1.994365811,2.942763329,-14.78173637,160.5391388,26.2577076
859,6.449155331,-1.517970085,1.870963097,-11.88534069,169.5191345,32.51951218
860,4.986750603,-1.62615335,2.81575489,-14.01525402,198.5031281,42.54331207
861,3.994174004,-1.777408361,4.216859341,-25.29348946,242.0436554,50.59075546
862,1.326178789,-0.107825443,3.019898653,-4.145171642,296.0163574,50.74812317
863,-0.606881678,0.423264384,1.857233644,51.87958527,317.5894165,42.12290955
864,-2.751540422,0.260098875,3.19176507,38.08037186,283.8600159,37.23909378
865,-3.788533926,-0.706203282,5.085272789,-42.97769165,225.7930908,39.52632523
866,-2.434197664,-0.79909569,4.993311882,-77.81828308,204.6181183,49.28178787
867,-3.428050041,-2.325524807,6.923329353,-60.69396973,180.4524689,57.18836594
868,-5.755351067,-2.385312557,6.365404606,-28.86838531,128.2746429,55.04161835
869,-5.127438545,-2.43214488,5.754971504,-10.40260696,90.72775269,44.69406128
870,-2.965209484,-2.055482149,6.02468586,10.30346966,61.63746643,24.77575874
871,-2.528426886,-2.008589745,7.421066284,8.712387085,47.36314392,16.4397049
872,-2.985747814,-2.284906626,8.48080349,3.53200388,37.23090363,11.25538826
873,-3.780967474,-2.530328989,9.546113014,-0.319532514,33.12569809,4.281224728
874,-3.865111828,-3.190995216,8.950910568,-3.368817329,19.5236454,-0.01029632
875,-3.489461899,-3.26300621,8.163288116,0.561936319,2.60498476,-4.355478287
876,-3.185552359,-2.776663542,7.723115921,13.04522991,-15.59617519,-9.095059395
877,-2.719890356,-2.158383608,7.643207073,11.25725269,-32.93910217,-13.92459011
878,-2.574536562,-1.667526484,7.940335274,-4.359034538,-44.6485405,-16.0774231
879,-2.217403412,-2.3362391,9.059720993,-18.17460823,-52.02694321,-15.3094101
880,-1.865023732,-2.349482298,9.679660797,-23.78523827,-53.88714218,-19.63474464
881,-1.600743771,-2.373541594,9.897377014,-20.8394165,-59.61265564,-24.395504
882,-1.527706385,-2.63693428,9.520505905,-17.59056854,-69.40630341,-24.52104378
883,-1.284036875,-3.217333555,9.431843758,-15.92609215,-78.25649261,-22.66540337
884,-0.746312141,-3.407934189,9.966632843,-17.81341743,-83.05109406,-23.5661602
885,-0.419954598,-3.454814672,10.09634113,-19.79388046,-92.13079834,-22.56146049
886,-0.173860431,-3.980495214,10.05072308,-17.87065506,-102.6955109,-21.5206089
887,0.191409424,-4.922091007,9.974351883,-4.978038788,-112.4374695,-21.06998253
888,0.298477501,-4.857090473,10.42286491,14.85448647,-122.1973419,-20.95867729
889,0.66160357,-4.285589218,9.877783775,32.16658783,-131.6967621,-23.35207558
890,1.093297243,-3.987701893,10.22980404,42.22885895,-139.2937775,-26.56674767
891,2.079877615,-4.024820805,10.17975712,52.94113541,-144.9829559,-30.62045288
892,3.159900427,-3.912594557,10.7512455,58.69578552,-146.3512268,-33.41334534
893,3.640901804,-3.632462263,11.25328922,65.494133,-146.9851227,-30.81095886
894,3.851708889,-2.787192822,12.13135433,68.88072205,-144.9677887,-24.56450653
895,4.199892998,-2.057966709,12.42884541,56.71489716,-145.9494171,-16.75557518
896,4.871344566,-2.120592833,12.07164288,43.53657913,-152.0776062,-11.99059868
897,5.354373455,-1.987691045,12.08194733,39.57299423,-156.2729797,-13.09980965
898,5.830430984,-1.981319189,12.01678181,31.66295052,-147.272049,-15.40835857
899,6.41579628,-1.896995306,11.98243809,22.51792145,-124.2221527,-18.43139267
900,6.493315697,-1.839277148,12.2380724,18.25754166,-112.2022018,-19.63488388
901,6.651282787,-2.133841038,12.51361942,23.43730545,-119.2565079,-21.54941368
902,7.018666744,-1.926706791,12.31935215,40.65825272,-136.9705048,-19.41884613
903,8.01460743,-1.803873777,12.21361923,40.22678375,-147.1551514,-10.92980003
904,9.130433083,-1.731259584,10.19589233,4.823525429,-133.099762,-5.684864044
905,10.60198975,-1.301437378,8.095963478,-29.35525513,-97.60758209,-0.501246095
906,11.12638092,-1.642369866,6.990316391,-48.04140091,-40.70295715,2.879823208
907,11.37802887,-2.238659143,7.637514591,-34.62562943,-9.945062637,9.226398468
908,11.71785259,-2.819964647,7.788481236,-42.8870697,13.51140404,16.25806618
909,12.10670757,-3.057886362,7.606842041,-27.38471413,36.92838669,16.30808449
910,11.52951908,-2.325573921,6.620595932,-6.115080833,60.76778412,17.7286644
911,10.24241066,-1.595757484,5.267903805,3.05531168,91.86603546,17.6234436
912,9.660445213,-1.887798667,4.882938385,8.835608482,118.956871,15.18517876
913,9.750583649,-1.768592834,4.250854015,2.830785751,132.9289551,17.41003418
914,9.054209709,-1.644215703,2.496946573,4.404203892,146.2749023,18.18360901
915,7.847720623,-1.737041235,2.429185867,4.33953476,180.778595,19.6371212
916,6.020859718,-1.684494495,3.046388626,-1.600754857,211.0336761,27.45742798
917,2.558363199,-1.278088808,3.825088739,1.350654364,235.5590973,33.79259491
918,-0.76334995,-0.082420215,2.982846498,17.56241798,285.6760864,32.57093048
919,-2.582081079,-0.436740249,3.490953445,-10.66539383,232.3907471,36.5656929
920,-1.970903754,-1.157019019,3.823754787,-70.82022095,198.8901672,41.52330399
921,-1.231372118,-2.666596174,6.935870171,-58.26126862,175.5676422,42.87891006
922,-2.072615623,-3.197169304,6.992166996,-21.11006165,151.3457642,45.60047531
923,-2.498984814,-3.214362621,8.08937645,36.75369263,124.8903351,39.23225403
924,-3.24107933,-2.896104574,6.818725109,69.87497711,80.8924942,20.86107635
925,-2.700894356,-0.988125503,6.434191704,73.51819611,37.81630325,5.980908394
926,-2.182939053,0.190784007,7.172043324,49.96375656,7.64426136,-1.097718835
927,-1.08308959,0.442805737,9.581468582,20.60884857,-2.349289894,-4.122972012
928,-0.809703887,-1.218304992,11.21790695,2.086622,-6.303990364,-2.88994503
929,-1.28397572,-2.157282352,10.49416637,8.545830727,-15.50354958,-7.256709576
930,-0.682205141,-0.921558976,9.690518379,18.38409615,-32.89870453,-13.1049633
931,-0.40623194,0.024386531,9.074394226,15.14837456,-55.37145996,-12.84182549
932,0.124701768,-0.668261111,9.212469101,2.363616943,-72.41066742,-10.89729595
933,0.35826993,-1.820932031,9.660541534,-6.787353516,-79.86397552,-8.384829521
934,0.767912507,-1.623702168,9.727403641,-12.05592251,-79.33073425,-12.64436245
935,1.469714284,-1.303292871,10.55370808,-16.24785423,-76.02158356,-14.68883801
936,1.349082232,-1.585835218,10.89937305,-8.606837273,-82.94898224,-12.76585484
937,1.660533071,-2.151146889,10.8226099,1.816449761,-91.38384247,-14.17704296
938,2.132505417,-2.309668303,10.68355179,7.513525963,-95.55096436,-18.49406624
939,2.30599165,-2.492720604,10.75535011,8.420292854,-99.1973114,-19.05703545
940,2.742409945,-2.638757229,10.36612988,5.181595802,-104.1534958,-17.23921585
941,3.159917593,-3.332707882,10.58261967,3.591289997,-103.7833862,-15.39748192
942,3.15920639,-3.105270624,11.14605713,2.759011507,-104.0120926,-16.40979004
943,3.060134888,-1.697447658,11.17192268,0.554544508,-107.6782837,-15.83677578
944,3.33045125,-0.285489142,10.7556572,0.092293605,-118.6028595,-14.80366898
945,3.422783852,-0.509776533,10.78810596,7.309220314,-135.0823212,-15.42130852
946,4.049957752,-1.238478541,10.15041256,8.983744621,-154.3104248,-14.67076492
947,4.864041328,-1.789446712,10.65821075,8.869081497,-162.5671997,-9.987532616
948,5.786224365,-2.460335493,11.42212772,10.48756218,-166.0660248,-8.0713377
949,6.83609724,-2.131525278,11.0778389,1.811542034,-167.7051392,-9.074378967
950,7.737919331,-2.504478455,10.90601158,-4.994150162,-167.0263519,-10.25361061
951,8.172450066,-3.588326216,11.39066887,-5.594628811,-157.2559509,-18.86956024
952,8.417841911,-3.423346519,11.36623287,-0.610409498,-143.1960449,-29.64972878
953,8.952011108,-2.100972891,11.72273731,0.907502711,-137.2381744,-34.52319336
954,9.599561691,-1.289297819,11.91295242,-7.611504078,-139.0935974,-33.04834747
955,10.67691898,-1.061084747,10.84429932,-10.94593716,-141.6276855,-28.87145233
956,11.76323605,-2.719221592,9.467457771,-3.210894823,-123.1405106,-20.57512093
957,12.08915806,-4.029843807,9.106483459,-22.54001808,-78.09876251,-17.16684341
958,12.72461033,-3.315373421,8.596735001,-3.57018733,-48.57006836,-16.99001122
959,13.1068325,-2.331086636,5.978788853,20.69312477,-31.89578819,-7.288822651
960,12.94116879,-1.89492321,3.282245874,21.6793766,2.84275198,-5.04587698
961,12.62197495,-1.760499001,2.752095461,45.85993958,47.03289032,-2.826391459
962,12.18410587,-2.182230711,3.533919573,54.64962769,72.78094482,4.587144375
963,12.15303326,-1.720555663,2.643617868,25.53050995,102.3655624,14.98925972
964,11.78796005,-0.338566363,2.202824831,11.82134438,139.8344574,18.78203583
965,10.76533794,0.260671705,2.15986824,-4.407416344,164.990097,22.09001923
966,9.163588524,0.139658302,1.663816929,-19.19799232,197.732605,23.80693626
967,7.52956295,-0.059470411,1.930632949,-22.32792664,220.10849,24.29057884
968,5.363789558,-0.408858269,2.747606277,-22.22843933,249.3565521,26.32276917
969,3.266099453,-0.789325058,4.256663322,-28.3118763,275.8855286,25.33690834
970,2.541050434,-0.198248699,5.688302517,-18.76552963,284.0141907,26.96787262
971,2.061553478,0.632101774,5.046444893,-8.789993286,274.8048706,34.06245041
972,1.141518474,1.39009881,4.452343941,-4.68418026,268.4564209,41.01903534
973,0.438845128,0.283824027,3.749922752,-27.90553093,264.5948181,45.59218597
974,-1.13056016,-0.1146373,4.069281578,-69.74110413,238.4779205,47.96294022
975,-1.394036293,-1.716602087,6.665272713,-67.58862305,221.5883636,44.82678986
976,-1.733774066,-2.279075146,8.094415665,-65.1548233,181.8647308,45.36350632
977,-1.81859374,-1.519557714,8.21446991,-30.37527847,135.2266083,38.79125977
978,-2.221609831,-1.972309709,8.043968201,-9.811291695,97.82209778,33.74239731
979,-2.213680744,-2.118106365,7.057879448,13.653965,61.86699295,20.32525444
980,-1.597390056,-3.087281942,7.663215637,18.8357296,37.03081131,6.623389244
981,-2.307507515,-3.015793562,9.613007545,19.51527405,16.46080017,1.8570081
982,-2.77321434,-1.516357064,11.05582428,8.244877815,-3.481394529,0.590456128
983,-2.99282527,-1.857974768,11.41927814,-5.206233501,-29.91033745,-8.04369545
984,-2.058823824,-2.363521338,10.68532181,1.759683371,-54.06626129,-19.52220154
985,-0.932443917,-2.573116541,10.77084732,15.80690193,-83.11946106,-40.86599731
986,-0.828819573,-2.482206345,11.11092663,22.63911057,-108.1806335,-50.30768204
987,-0.70714128,-1.983175397,12.465868,23.91304779,-126.8476944,-51.47579193
988,-0.315771133,-1.5103091,12.34039879,32.04695129,-149.6057129,-44.41013718
989,0.922639549,-0.701474309,11.06720257,45.72758865,-190.5415802,-35.67103958
990,1.65889442,-0.432350069,12.05483627,43.28926849,-217.1797028,-31.29730606
991,2.72782445,-2.739005089,13.20890713,40.3024292,-243.5187836,-28.22722816
992,4.460544109,-3.24128437,13.98514366,39.03948975,-271.5560303,-30.45933533
993,6.425230026,-1.775948882,13.93641949,33.01840591,-291.0818481,-33.99084091
994,8.771073341,-1.354138732,12.54277134,20.8087368,-286.1032104,-28.74959755
995,9.910096169,-1.505036712,10.49777031,5.210720062,-267.143219,-23.44921303
996,9.590697289,-2.700068951,8.219039917,-11.65398121,-244.2512817,-24.60216522
997,9.540712357,-1.857356548,8.773568153,-21.14312553,-230.8911285,-22.07782173
998,10.6254673,-1.670866966,9.308311462,-37.28194427,-222.7667694,-20.68428993
999,12.37711716,-2.472336292,9.193284035,-14.54588699,-205.9982452,-16.85865402
1000,14.78050804,-4.25509882,7.782297611,-1.18698287,-166.0426636,-10.5873394
1001,15.76023197,-3.339921951,5.97590971,5.607655048,-92.61219788,-2.866430283
1002,13.73249435,-1.362739682,6.404865265,14.39985085,-16.9621563,7.330425262
1003,11.59617996,-0.732507527,5.927146912,26.41076088,36.1269722,9.4460783
1004,10.9821825,-0.469674438,2.094258308,32.00479126,62.47053528,13.56800175
1005,8.328887939,-0.703730464,-1.217008233,34.65387726,61.51824951,24.64011574
1006,4.956594944,-0.98095113,2.741063595,9.308081627,83.53247833,17.58701324
1007,5.002019405,-1.097783446,4.162966728,-48.51189804,111.3023605,8.193270683
1008,4.139742374,0.947486699,0.120326854,-57.59825516,125.8207092,14.89836693
1009,-0.164295912,2.089097977,-4.533688068,20.81406021,100.2668915,15.53859043
1010,-0.406004757,-0.865448415,2.227457762,7.97138834,88.2403183,9.951125145
1011,2.161808968,-1.55060482,3.816039801,6.779595375,88.93132019,0.557815373
1012,2.467568636,-1.345475197,4.44654417,7.409742832,87.17497253,3.198593616
1013,-0.790805519,-0.894561648,6.457333565,12.48038292,73.07381439,-5.379924297
1014,-0.170347974,0.305932581,6.025505543,-9.611246109,35.57674789,-17.30063438
1015,0.371301025,1.09032464,5.840301514,-8.994423866,39.03940964,-5.238735199
1016,0.299402684,-0.199116886,6.915793419,-8.933002472,15.15631294,-5.254348278
1017,1.725347757,-0.423670709,9.094323158,-14.71410561,3.609480858,-11.15015793
1018,4.032698154,-0.787999809,7.943430901,-28.57962227,5.97572422,-6.674549103
1019,3.237268209,-2.593846798,7.659611225,-12.45102596,-11.55985737,4.306671143
1020,2.097928524,-4.403318882,7.808446407,10.43600273,-29.67764282,2.758478642
1021,2.576793194,-3.127873898,8.029100418,13.38082314,-33.99200439,2.314598799
1022,4.130503654,-2.846942186,8.586205482,14.06370735,-42.66228867,-0.107612513
1023,5.53622961,-2.323540449,8.530417442,26.85053635,-44.95810699,-6.360425949
1024,6.19563055,-0.572839618,8.303714752,36.34419632,-39.89717102,-13.37516308
1025,6.441403866,0.208889872,7.735144138,35.91199493,-33.34481812,-18.82930756
1026,6.912751198,-0.181637868,7.219192982,23.28212166,-22.88062096,-16.13879013
1027,7.442830563,-0.659920037,7.423383236,-0.565695167,-4.533680916,-9.662792206
1028,7.33981514,-0.966610909,8.57134819,-18.85017395,11.27602959,-6.797596455
1029,7.445163727,-0.907585025,9.951108932,-16.20487976,15.34572124,-6.543917179
1030,8.202544212,-0.665846825,10.61413574,-13.38117599,4.29118824,-5.595547676
1031,8.005744934,-1.292981386,10.94165421,-4.47302103,-17.96212196,-8.711364746
1032,7.500174999,-1.748184681,11.87810993,47.12824249,-41.34386444,-4.000374794
1033,7.279868603,-2.438428164,12.26052475,67.09391785,-50.70898819,-1.667210698
1034,9.172286034,-2.231052876,10.36548233,37.27056122,-24.76182175,-9.112258911
1035,10.28758717,-1.51847136,9.426579475,26.51971436,30.51574135,-16.44345093
1036,10.1079483,-1.673736334,9.399404526,16.99003792,58.78346252,-17.77840233
1037,9.480869293,-1.295409918,9.563635826,10.35501385,86.52734375,-7.3038764
1038,9.624846458,-0.752322793,9.623624802,18.15301514,120.1548843,2.890447378
1039,9.77098465,-1.242467284,9.902008057,23.53206825,138.0296478,10.63995457
1040,10.01903057,-1.170750737,9.209663391,10.89995003,145.7486877,15.94310284
1041,10.02895927,0.350636035,6.649065971,-14.05485916,166.0159454,27.45544434
1042,9.359908104,2.099578381,5.534266949,-6.049594879,167.4143066,30.26572037
1043,8.225178719,0.342638493,5.737839222,-5.004525661,148.7655334,29.39636993
1044,9.372253418,-0.001614532,4.610236645,-22.56787109,155.4987946,26.39200401
1045,8.007230759,1.544563413,2.313031912,-19.49575615,188.1933594,34.93322754
1046,4.535833359,0.627379358,3.600593328,-19.22848129,243.3144836,39.09144592
1047,0.488159984,0.533778489,2.865288973,-27.23664856,300.7028503,39.61336136
1048,-3.206184626,0.252094895,3.061636448,-4.493210793,297.3565674,37.11872864
1049,-5.577982426,1.090833187,3.365409136,-46.11756134,244.0206757,37.54394913
1050,-4.622910976,-0.4672755,4.349276066,-87.29153442,228.2945404,41.84432602
1051,-4.194988728,-0.292609096,5.2730093,-85.77585602,215.9325409,41.33982468
1052,-4.809359074,-0.567762792,7.205613613,-73.27766418,187.9776154,44.94634247
1053,-7.841768265,-1.940656543,8.346318245,-59.24810028,144.2776489,19.34059525
1054,-3.355784178,-1.698359489,7.014777184,-34.96229172,117.8769073,10.6088953
1055,-1.439721227,-0.62234205,6.454192162,42.39972305,81.38604736,19.7261734
1056,-2.198577881,-1.011206746,8.004216194,38.31335831,34.35079193,19.16580772
1057,-6.947221279,-2.368858814,9.476948738,17.01768494,21.02063179,17.92757988
1058,-7.562596798,-2.886855125,9.310598373,-0.224290401,-3.118806839,-1.297897816
1059,-4.406442642,-2.777426243,8.908043861,-2.42852664,-28.12709236,-9.99455452
1060,-3.173427582,-1.586856127,8.226493835,-15.09298897,-51.08707809,-6.629478931
1061,-2.992616177,-1.083803535,8.865956306,-26.98390961,-70.67095947,-4.188196659
1062,-2.565330267,-1.432412386,9.381123543,-32.53743362,-89.67430115,3.207831144
1063,-2.766334295,-2.205690861,10.18206215,-26.05653763,-97.98371124,2.162129641
1064,-2.404722452,-2.650857925,10.23548126,-22.35013199,-99.72930908,-5.373281479
1065,-1.880900741,-3.359093666,10.77158165,-16.60269547,-101.255043,-9.226372719
1066,-1.315443754,-3.804643393,10.83757687,-10.74949455,-102.4103394,-12.28216457
1067,-0.67273736,-3.372583866,11.02625275,-0.735815644,-101.159935,-12.27480888
1068,0.185109347,-3.754826784,11.59633923,4.927051544,-106.1952515,-12.37708092
1069,-0.355735689,-3.946954489,11.68440437,17.79939461,-109.4580002,-12.06430054
1070,-0.543070495,-4.127700329,12.3295536,35.11191177,-112.2810211,-13.64130688
1071,0.113784306,-3.334452391,12.64014912,53.99018478,-113.5168839,-14.42706394
1072,1.035282135,-2.755220175,12.79571056,70.1947937,-114.3708572,-15.19426441
1073,1.466357708,-1.414433241,12.50600433,75.07619476,-119.9884338,-17.56721497
1074,1.609549761,-0.178976238,12.21851635,67.52725983,-128.5423584,-17.68264008
1075,2.37372613,-0.408196718,12.42543316,57.85000229,-130.0853729,-19.80902672
1076,3.958258867,-1.294607759,12.81204414,33.41073608,-121.0980148,-20.58124733
1077,4.947268963,-1.287538767,12.33364773,4.32256937,-109.9908752,-18.83863258
1078,4.768264771,-0.988274217,11.95470333,-17.78698158,-91.72561646,-20.86027145
1079,4.668367863,-1.019500256,12.3353157,-22.14614677,-79.10123444,-21.88130379
1080,4.808831692,-2.014642,12.85592365,-14.43371773,-70.21567535,-21.15003586
1081,4.507349491,-2.851987839,13.59487343,-18.50536156,-80.81972504,-12.07012844
1082,4.156878471,-1.557531238,11.9552412,-16.69277,-84.10433197,-7.194499493
1083,4.541287899,-0.726240695,12.39447308,-14.91383457,-78.94223785,-6.615616798
1084,4.554434299,-1.067901254,12.2098341,-39.4454155,-72.35580444,-6.145889282
1085,4.079451561,-1.235632896,10.69128895,-38.43727875,-82.26566315,-6.647061825
1086,4.605359077,-1.711711645,9.913586617,-25.03525162,-89.62387085,-9.321773529
1087,4.576133251,-1.511012793,9.143515587,-23.66559219,-87.4850235,-13.78422737
1088,4.232066154,-2.054246902,8.182435989,-6.401299477,-108.8222961,-19.84497261
1089,4.479179859,-2.517462492,9.027645111,13.30304432,-121.2507095,-23.76737022
1090,4.194237232,-1.943104267,10.63050652,21.07740974,-137.74646,-22.93140793
1091,5.185564518,-0.246824443,11.56860447,22.64635849,-166.7374878,-23.18978119
1092,7.05605793,-0.271814942,11.83302879,12.82400417,-190.5809174,-25.06891632
1093,8.082173347,-1.674871087,10.33563328,27.73751831,-195.6699524,-27.82121658
1094,8.972126007,-0.551678538,10.5527668,34.62529373,-204.7265015,-24.8883934
1095,10.96663666,0.330024421,10.68514442,-3.482713461,-225.9786072,-11.54406261
1096,13.18055153,-0.167833388,8.522607803,-38.79566956,-209.3530273,-15.36105824
1097,13.62666702,-1.78147769,4.257853985,-30.49108505,-192.3549805,-14.05070972
1098,14.39644909,-2.526055574,1.155618191,-25.30411148,-155.2296143,-6.782040596
1099,15.18403816,-0.628231287,0.984491348,-11.96651173,-91.23530579,-9.032129288
1100,15.33748245,-2.998499155,4.013476849,13.93637753,-65.43690491,2.377017736
1101,13.61354446,-3.548536777,3.224826336,9.48772049,-54.23988724,8.885674477
1102,13.75115204,-0.923309445,1.765022993,35.09870529,-37.56590271,13.38418293
1103,14.07518291,0.941012859,-0.906235874,12.74753094,-8.314946175,14.92516422
1104,12.11534786,1.501906276,-2.608929157,-18.720541,44.39325333,24.04289436
1105,11.94490719,-0.030528039,0.427055091,-42.17156601,86.9377594,21.93188095
1106,10.01836967,-0.810180366,3.215538979,-56.58219528,124.7983093,24.74205399
1107,4.922181129,-0.223312885,3.732740402,-75.95978546,160.4028168,21.51376915
1108,2.786995411,-2.141659498,8.153780937,-69.5451355,136.8188782,20.92377853
1109,2.8004601,1.563166261,1.837784529,-100.3866119,139.9076996,27.23873711
1110,6.413918972,1.171182752,-2.986065865,-53.58333588,155.9017029,41.96527863
1111,4.925503254,-2.165244579,-0.749278665,-41.55171585,158.5861664,50.77637863
1112,2.735307693,-2.413918018,1.256856441,-19.13397789,176.7700653,31.8592701
1113,2.318455458,-0.534303844,1.944192171,1.935826302,171.4381866,23.71655273
1114,0.41015771,1.229017615,2.420975685,-4.284998417,146.4937286,31.47283936
1115,-0.981881022,-0.831371367,3.198305845,-20.73669243,96.28559113,31.05952835
1116,-1.223585606,-3.298493624,4.229411125,-22.87404251,67.39710236,19.91659546
1117,0.647229612,-2.792355299,6.014371395,-13.04812908,59.6794281,8.491036415
1118,1.016546607,-2.81916666,8.021251678,2.986115456,49.76518631,6.842525959
1119,0.890801787,-2.768498898,7.978146553,17.64939117,37.83660126,8.20055294
1120,0.295515895,-3.352550745,7.8340168,26.50091171,25.55195808,2.352825642
1121,0.324384928,-3.60276866,7.543441772,53.63441086,12.12798119,-2.112967968
1122,-0.488329768,-2.276192665,7.072399139,62.39429092,-5.037139893,-6.145416737
1123,1.181868196,-1.671459436,7.204066753,66.3140564,-22.51978302,-19.71512794
1124,1.908126116,-1.93710041,8.103404999,54.5791893,-38.66379166,-13.02820206
1125,2.380949736,-2.207628489,9.032067299,42.88362885,-51.93140793,-10.44377518
1126,3.485733032,-1.162030816,9.450387955,28.5173378,-62.49662018,-11.84389782
1127,4.606949329,-0.276327074,9.383113861,16.69887543,-69.06340027,-15.56811142
1128,6.560949326,-1.378294945,8.64966011,2.576664448,-70.36197662,-12.15257359
1129,7.79184866,-2.840356588,9.524029732,-9.26243782,-62.62750244,-5.228432655
1130,7.191784859,-2.07998085,9.667155266,-11.97337151,-58.18164825,-8.32270813
1131,7.713527203,-2.24304986,11.32970619,-6.474338055,-55.7865448,-12.86405087
1132,9.998118401,-1.755465865,12.00821877,13.50302696,-66.93458557,-17.54650497
1133,11.22189426,-2.215342045,12.32573891,35.61343002,-74.5769577,-23.2611351
1134,9.160876274,-2.38375926,12.57113552,34.36809921,-63.05744934,-32.43642807
1135,10.4857254,-3.321439505,10.82186317,40.44044113,-30.78095818,-30.5412178
1136,11.28157806,-3.019267321,8.452619553,12.92161369,-5.50044775,-9.399575233
1137,9.796751022,-0.332053512,8.885103226,-14.74794769,32.6500206,0.203781962
1138,9.780072212,0.349483132,10.11015034,-34.71107483,71.94537354,0.958621621
1139,11.97764397,-2.862988949,10.03057289,-32.02183914,88.3736496,17.51940536
1140,13.64696598,-3.981331825,6.864047527,-15.82765388,99.84754181,39.78028107
1141,13.84597683,-2.690749168,3.435696602,-12.84452534,133.1669006,47.39735413
1142,12.13156605,-0.979991376,2.67357707,-4.606832981,177.0919647,44.92586136
1143,9.930149078,-0.276419491,1.799652219,-5.794188976,223.4345398,49.07997131
1144,10.06298351,-1.932287693,1.209138989,0.288502753,261.3627319,47.39493179
1145,7.569721222,-1.013112664,-0.030051738,20.17062187,295.6964111,38.3613472
1146,2.908747196,1.844509244,0.334062576,56.06397629,327.0795288,37.8013382
1147,-1.16925168,2.36059165,0.821317673,48.55475998,319.7154541,44.12466049
1148,-4.746968269,0.942043483,4.013762474,-21.6816082,294.9300537,53.09466934
1149,-5.56103754,-0.669492364,5.040870667,-63.21485519,242.8787994,55.76774216
1150,-5.427238941,-1.926218748,6.391335964,-64.66059875,218.3120422,59.43233109
1151,-5.402676105,-1.793910265,7.898262024,-70.90494537,190.088028,62.34103012
1152,-5.06304884,-2.705273151,9.98371315,-41.98541641,167.5092773,56.30342102
1153,-6.016750813,-3.177062988,8.826497078,-19.09875107,138.0720367,49.94592285
1154,-5.957843781,-3.015595913,10.50698376,-1.21618259,107.1305084,30.48612595
1155,-5.904977798,-1.413866639,10.68438625,-5.664031982,71.84957886,-0.841379821
1156,-1.068030953,-1.171726942,9.335935593,-2.897065639,34.98417664,7.589493752
1157,-4.134783268,-2.545092821,10.75534916,11.94182873,-11.0780201,11.29855156
1158,-6.442230701,-3.571202517,11.42887878,-13.48227787,-23.69179535,-2.537277699
1159,-5.852542877,-3.168592215,10.87413406,-12.83131027,-46.36459732,-24.06962204
1160,-2.796399117,-2.72099781,9.649770737,-7.287259579,-71.60747528,-35.01080322
1161,-1.066235304,-2.467324972,10.55039501,-2.897653341,-96.99996948,-42.61949539
1162,-1.285765529,-1.913526058,11.23793125,-11.57279015,-114.6224747,-42.12587738
1163,-2.146234512,-2.393675327,11.3682518,-14.37590408,-130.5642548,-48.84923935
1164,-1.27156353,-3.089164972,10.73996162,-8.010648727,-154.2686005,-56.78507233
1165,0.430377781,-2.827357054,10.8306551,14.55237389,-179.9318085,-58.19943619
1166,1.283876657,-2.500188351,11.3554039,29.38041496,-194.4855652,-54.98453903
1167,1.758514643,-3.613601923,12.39061832,35.77626419,-207.960144,-51.43950653
1168,3.634312868,-5.248040199,13.47148514,35.00605011,-220.2536011,-55.55572891
1169,5.205964565,-4.19137001,13.8395052,41.67982101,-231.917923,-58.32826614
1170,5.268240929,-2.621297598,13.76676941,55.96922684,-242.1411591,-54.13863754
1171,6.362687111,-3.096419096,13.78608799,64.31211853,-253.7743988,-52.20320511
1172,7.900660992,-1.821833849,12.47918415,59.19888306,-255.5348358,-53.60897064
1173,9.349473953,0.128371432,11.50971699,42.6042366,-251.1852112,-51.94212723
1174,10.4319191,-0.530533075,10.81793118,15.32193851,-240.7153473,-41.14064026
1175,11.02581215,-2.218286514,10.87394524,-0.930383861,-215.2275543,-36.76070404
1176,12.66869926,-3.229810715,9.128455162,13.16316795,-186.7461243,-23.52396774
1177,13.28432655,-3.380715847,9.648140907,27.13818741,-133.28685,-17.39080238
1178,12.44090652,-2.574293137,8.454813004,15.28937721,-98.96688843,-11.35837269
1179,12.27776146,-1.553358316,5.69080925,-7.672013283,-67.66925812,-6.564962864
1180,11.50139141,-0.488677293,4.650347233,-22.64237785,-26.90946007,-0.738263607
1181,10.67796898,-0.496758431,2.761820316,-22.45089531,19.63836098,1.70346117
1182,9.145162582,-0.58448267,1.379768968,-2.566028118,60.00455856,-1.764609218
1183,7.619492531,-0.312917441,3.845263243,-17.52465248,64.48873138,4.842393875
1184,4.86045742,-0.991460621,5.235629082,-7.928643227,51.46695709,32.23790741
1185,1.660290122,-2.273962021,7.362401485,-107.4777374,95.57364655,24.52611732
1186,0.068166994,2.433186293,-1.824923992,-68.87796021,80.37570953,19.51284218
1187,-0.448662639,1.165385962,0.705499053,-26.65966415,65.30301666,17.40573311
1188,1.418071389,-0.926719308,4.230181694,-45.29644394,66.86062622,27.42377853
1189,2.124978304,-2.077665329,6.100653172,-40.94235992,67.93279266,19.61777115
1190,3.386607647,-2.403913975,6.927723885,-17.03444481,54.19216537,14.40391827
1191,1.842977524,-1.83701539,7.269712925,-4.035425186,43.8223381,9.233373642
1192,-0.029250519,-0.265326768,7.154675484,4.06938982,28.70582771,0.072785094
1193,0.417516559,-0.428347409,6.618800163,1.552764058,-4.30900526,5.324978352
1194,2.206978798,-2.047148705,6.958420277,-1.431625009,-20.12451935,14.96296597
1195,2.050050735,-2.891422987,8.04019928,-12.02215576,-13.48445129,7.140311241
1196,3.273806572,-2.556070566,8.239004135,-4.911278725,-17.84615326,-2.501851082
1197,4.258677006,-2.743119001,8.998814583,7.157273293,-24.02966881,-1.479687452
1198,3.404365778,-2.853531361,8.850494385,19.82590866,-31.57130241,0.50620544
1199,2.477095127,-2.68443346,8.457853317,21.20909691,-41.44192123,-1.780237198
1200,4.20066309,-1.950756192,8.775120735,22.13098335,-40.90436172,-3.87607646
1201,5.83232069,-1.307841182,9.092625618,21.53572273,-38.86902618,-3.228055
1202,6.160233974,-1.110086799,8.402767181,27.0218029,-42.85748672,-1.334856391
1203,6.383228302,-1.61399138,8.193470001,26.17541504,-43.78007126,1.2495718
1204,6.585947514,-1.196907282,7.996134281,14.53211212,-35.5298233,3.189521313
1205,7.065159321,-0.983416438,7.348390579,-4.764182568,-30.07533455,2.75865674
1206,7.36038208,-2.518689632,7.708034515,-19.8417511,-19.42775726,-0.320236444
1207,7.406383514,-2.510424852,8.610944748,-25.16829872,-10.08173656,5.798840046
1208,7.538046837,-2.808445454,9.402543068,-24.30973816,-10.95966244,1.006613493
1209,7.717490673,-2.43849659,10.58050251,-7.611485958,-13.49598312,-5.985846996
1210,8.056204796,-1.779710293,11.85563564,0.180115432,-26.00167656,-10.32396984
1211,7.387963772,-1.440374613,12.21751118,-5.717395306,-35.10416794,-4.570081711
1212,7.910524845,-3.596669912,11.47829819,16.19312859,-36.62540054,-7.676299572
1213,8.947036743,-6.048402309,10.69719982,35.00746918,-12.95981407,-11.21381283
1214,9.696207047,-3.515873671,8.342308044,24.52966309,2.42604661,-7.923140049
1215,9.772587776,-1.32619071,7.550626755,37.62650299,35.86998749,3.267322063
1216,10.23200703,-0.61824584,8.945393562,14.75162029,70.48957062,8.603446007
1217,11.05845547,-1.824222803,10.05545807,-5.303656578,109.2648315,13.56747818
1218,12.03712177,-3.104643106,9.907581329,-4.100075722,139.2415924,24.45814705
1219,12.28617764,-2.326048136,7.67438221,4.683042526,160.8976746,32.40224457
1220,11.38375759,-1.479805231,5.095165253,4.796830654,186.8450623,38.9532547
1221,8.878622055,-1.174552917,3.214316845,7.716918468,194.4730072,39.97532654
1222,8.78385067,-1.272140622,3.483921289,11.04232407,215.6661224,38.59042358
1223,8.401599884,-0.765961468,1.795557022,-1.403563738,224.5106354,38.91162491
1224,6.152628899,-0.017726598,0.76540333,18.08420563,244.1130981,42.62233734
1225,2.854055166,0.167293772,1.135080576,32.7252121,266.1403503,45.24806595
1226,-1.054581523,0.448464572,0.954654992,36.73970032,278.8034668,45.46006012
1227,-4.928832531,-1.269107819,2.89710784,12.09302998,256.7065735,49.61840057
1228,-5.812186241,-1.784600139,5.59985733,-60.89869308,223.192749,44.10877609
1229,-4.550071716,-0.818369389,6.470303535,-59.54328156,200.0168915,48.27982712
1230,-4.123497486,-2.163583755,6.884921074,-44.72605133,166.2205811,47.46760559
1231,-5.719582081,-3.4218328,9.629997253,-19.52822495,139.8374481,48.81478882
1232,-4.828454018,-2.277715921,9.668334961,-2.294498682,111.408577,39.56127167
1233,-4.213755608,-1.272385001,8.492864609,34.61034775,83.92137146,28.42514992
1234,-4.523497581,-0.689421713,8.604138374,24.95798111,54.08810043,10.63011742
1235,-5.415421963,-1.020020962,9.321691513,11.29756641,29.27312469,-8.079632759
1236,-1.638512254,-0.849032938,8.859866142,-10.53772449,9.189938545,-1.15724659
1237,-3.414694071,-1.6834656,9.90246582,-19.63195229,-10.17467594,5.384945393
1238,-4.060756207,-2.173504591,9.821720123,-31.50843811,-26.04981422,0.470411956
1239,-3.723682165,-2.471431017,8.713363647,-33.42870712,-48.85827637,-9.746804237
1240,-2.982622623,-2.462683916,9.238101006,-37.16558456,-64.18234253,-13.77053165
1241,-2.765440226,-2.623050451,10.40173817,-33.89532471,-69.31297302,-10.48971176
1242,-1.891956687,-2.610158443,10.83669186,-31.7246418,-80.20588684,-12.7304163
1243,-0.390748233,-2.280529737,11.45145988,-32.47380447,-89.04695129,-23.88256836
1244,-0.322544575,-3.147618055,11.12353611,-31.41106796,-96.72280121,-22.31481934
1245,-1.68642962,-4.198139668,10.89596367,-20.31450653,-105.4140091,-16.75208092
1246,-1.345068693,-4.698559284,11.25245285,-6.728467464,-107.1055603,-17.47698975
1247,-0.477084458,-3.894701719,11.55383778,-2.587437868,-106.5390472,-20.0956459
1248,0.624869704,-3.335379839,11.78902912,-0.763479829,-102.9049149,-18.0888176
1249,0.959850907,-3.155474186,11.76967144,0.784978867,-107.9888077,-13.75947571
1250,0.813085198,-2.9565835,11.16228962,5.548307419,-113.9052582,-13.50581932
1251,1.103394508,-2.965060234,11.15920544,0.094803862,-119.3826752,-16.34875679
1252,1.819146514,-3.992400408,10.65362167,0.678666532,-125.8153229,-20.83316612
1253,1.949890256,-3.972206593,10.42310619,15.25577259,-128.4538269,-24.73690033
1254,2.616709709,-3.394778967,10.81448555,28.48563385,-130.3701172,-26.25333405
1255,3.204690933,-3.051677942,11.32122135,32.76495743,-130.3675232,-25.47473907
1256,3.659617424,-3.122522116,12.01902103,23.83170509,-125.1657562,-23.94479752
1257,4.185294628,-2.86954236,12.09461021,25.36472893,-127.9195709,-23.56678009
1258,4.659606934,-2.343519926,12.26649761,40.17667389,-134.2501831,-24.75857735
1259,4.991175175,-1.764281511,12.81809044,45.10321808,-153.8964386,-27.87299919
1260,4.880993366,-2.155088186,13.00523472,46.77999496,-178.2274323,-28.23378563
1261,4.949655533,-2.137605906,13.11674404,35.29471207,-190.3861542,-23.62137985
1262,5.962118149,-2.115264416,13.00872517,10.80632973,-210.7517853,-18.25138283
1263,7.744749069,-1.801356673,13.79685116,-7.268850327,-227.2846222,-20.23430824
1264,9.494307518,-1.982244015,13.2073307,-28.8666172,-235.7915497,-27.44142914
1265,10.28251553,-2.765747786,9.26424408,-54.28705978,-225.033371,-33.99108887
1266,11.22830868,-1.56311655,4.798445225,-46.48880386,-205.8041687,-38.88016129
1267,13.85333347,0.442895144,5.355660439,17.31468201,-164.1525421,-30.76717567
1268,15.52705669,-3.239176512,7.331768036,-0.581540465,-118.2388916,-23.12625885
1269,14.46066761,-5.193912506,3.405720472,-16.12475777,-72.60068512,-19.32025146
1270,13.27678204,-2.900727272,3.808410406,10.82180023,-44.11888885,-10.48647022
1271,11.45880985,-1.759037018,3.384209156,-5.882060051,-25.57348442,3.167408228
1272,11.12293148,-2.519300938,3.473301172,-27.18083954,-8.009472847,2.82236743
1273,11.98612595,-1.817947507,3.106397867,-19.3281517,-5.170968533,5.228116512
1274,11.57465935,-2.571177959,1.958565235,2.581818104,-3.735561609,6.77497673
1275,12.32100391,-1.527694345,0.737321138,19.17046356,28.60966682,5.249300003
1276,11.9051733,-0.816976905,1.367217183,2.348873854,98.37194061,5.303067207
1277,6.890326977,-1.810145736,4.494688034,-1.332094312,175.1473389,6.569466591
1278,2.685412884,-2.072968721,10.08342171,-49.37945938,178.8552246,1.035807133
1279,0.412233889,1.399789929,0.566814959,-59.26368713,115.2310715,27.44418526
1280,3.193090439,0.091328219,-5.258207798,20.15477753,132.8448639,28.54001999
1281,4.492337227,-2.459420204,-1.28804791,3.764665842,140.3365631,41.56867599
1282,2.873198509,-1.778773546,0.64940083,6.531462193,145.7015839,31.37513351
1283,3.026203394,-0.54992485,2.799195051,29.42168617,140.6672211,30.83091164
1284,-0.849255443,0.443511009,4.021235466,30.81479836,114.9826965,32.11522293
1285,-3.414703608,1.567961931,4.333981037,23.21048164,83.80615234,18.49917793
1286,-1.810839653,0.206775606,5.209956169,5.790796757,50.4161911,3.428912401
1287,1.248199582,-1.999898076,6.640629768,-1.785227656,39.28020096,1.473615408
1288,1.523957372,-1.808677912,6.889397144,0.44277522,36.5547905,2.842722416
1289,0.377631396,-1.145611882,7.229142189,-1.779267669,26.10672569,1.505652785
1290,-0.474725574,-0.778270543,7.392346382,-2.774163961,10.85419846,-1.113397241
1291,0.564783454,-0.849958122,7.759908676,1.810248017,-2.644984961,-1.337840915
1292,1.600670815,-2.160384655,8.153884888,0.23550266,-19.14181519,0.06805943
1293,1.158374667,-2.931546211,8.944200516,8.859487534,-32.79399109,-2.167073727
1294,1.640046954,-1.443870187,9.483366013,15.52590847,-48.93399429,-11.00119591
1295,3.194287777,-0.420512706,9.681159973,11.57978725,-63.00760651,-15.15385723
1296,4.706783772,-1.487469792,9.332989693,-1.476499915,-75.57135773,-9.39891243
1297,6.386833191,-4.14592123,9.007502556,-1.788815498,-76.74377441,-5.254234791
1298,7.028270721,-4.913560867,9.530631065,4.032207012,-63.63099289,-1.972193241
1299,7.498610973,-5.156814098,9.528840065,13.80561543,-50.7651329,-0.008388241
1300,8.485296249,-3.855133772,10.5243578,16.35051727,-33.48868942,0.121782579
1301,7.978226185,-2.92952776,10.92480564,27.43550873,-21.24658012,-1.652461529
1302,7.933725357,-2.453466654,11.03019142,47.01192474,-13.31431198,0.465738922
1303,11.35084629,0.089839756,9.209152222,60.53387833,-4.39669466,5.938247681
1304,5.466363907,-1.740252137,13.15816879,61.87020493,17.1928978,-4.851475239
1305,5.611691475,0.019183731,12.93210316,13.50106144,10.99638653,-27.41033745
1306,8.062932968,-0.822892189,12.16973877,2.644620657,5.420756817,-37.81167221
1307,8.610378265,-3.243917227,10.77439117,7.504265785,18.95655632,-36.43325043
1308,7.358882904,-2.640650988,10.68323517,-16.48975372,46.92288589,-26.31268883
1309,7.275840759,0.07659176,10.95816326,-22.01482773,43.13220978,-23.27223015
1310,8.836342812,-0.721304357,11.00856304,-17.96619225,42.88630676,-8.211495399
1311,9.467498779,-2.674373627,10.00422955,-30.66839981,58.5282402,9.161812782
1312,10.66117954,-1.758888245,8.625443459,-52.5860939,90.88822174,32.93674088
1313,10.9796524,-2.406634808,8.135380745,-64.3129425,126.6980438,40.26889038
1314,10.59904003,-2.816255093,7.675566673,-61.4463768,142.7055817,40.28970337
1315,9.28304863,-2.444890499,4.963008404,-40.43043137,131.6104584,48.1033783
1316,8.882199287,-4.471387863,3.640254736,-23.32455063,144.4120483,49.07024002
1317,9.093547821,-4.393786907,3.478701115,-15.51652527,167.6880646,44.27061081
1318,6.777721405,-1.871470571,3.250542402,33.78653336,174.5917206,41.43316269
1319,3.02811408,-0.970431268,3.063174486,55.65903091,185.8737183,43.33078384
1320,-0.222355515,-0.86911422,3.376677036,57.67157745,198.7694702,42.3971405
1321,-1.601513505,-1.295603633,5.191812515,37.43306732,198.6909332,44.85527802
1322,-4.079261303,-0.543141603,5.864900589,13.14605045,207.1003265,49.03965378
1323,-4.137285709,0.349504441,7.206286907,11.51524925,184.3422546,44.02183151
1324,-3.838271856,-0.874505281,9.356481552,-17.90495682,160.7222137,36.10494232
1325,-3.980624437,-0.771664083,10.1609211,-38.17180252,132.8707581,34.73344421
1326,-3.227698088,-2.247974157,8.74020195,6.891428947,127.4740067,35.90998459
1327,-2.628782511,-2.521017075,10.31754208,27.90021706,103.476059,32.24938202
1328,-3.517229319,-1.105472445,9.10658741,41.2670784,79.31987762,23.69306946
1329,-4.211549282,-0.517616034,9.776794434,41.18086624,54.2838707,13.61493683
1330,-4.38011837,-0.505910516,9.369279861,34.92301559,48.30345917,5.529255867
1331,-3.43481636,-1.175175071,10.37730503,9.897072792,30.92035294,-1.72292161
1332,-2.423530102,-0.326082289,10.22747707,4.489481449,13.77381229,-9.278862
1333,-2.867933035,-0.361977458,10.00220299,8.274687767,-10.32440472,-14.58653164
1334,-3.442649364,-0.389643818,9.564721107,5.718707085,-45.901577,-18.08802605
1335,-3.03077507,-0.147781625,9.744091034,-9.520134926,-76.1902771,-21.6566124
1336,-2.56781745,-0.313481748,8.510051727,-21.6985302,-99.93608856,-28.87384224
1337,-1.660963535,-2.328997135,8.455591202,-32.17243576,-112.5519714,-33.41169357
1338,-0.329425365,-3.261638403,9.599914551,-29.48565674,-118.1153488,-37.56243515
1339,1.130622625,-1.354360819,10.96106243,-20.0906868,-118.1454697,-45.05580521
1340,1.29294908,-1.507907391,12.14485836,-19.9871769,-118.8233261,-48.92873764
1341,1.435210943,-3.424133301,11.93941402,-19.35033798,-126.0493774,-45.43998718
1342,1.692819834,-4.868217945,11.85678864,-3.058515072,-136.5025787,-39.33472824
1343,1.74479413,-4.040151596,11.8141489,18.24482727,-150.133728,-40.11372375
1344,2.458228111,-2.770537853,12.31857014,30.35591125,-164.4375,-39.06838989
1345,3.194266319,-2.976317406,11.87058163,51.50894928,-177.8040771,-36.53674316
1346,3.623079538,-1.648215175,12.15675259,73.81112671,-196.8036499,-34.4105835
1347,4.249511719,0.838657379,12.81388664,75.03601074,-210.7345734,-28.06743813
1348,6.09939909,0.385306805,13.57922363,46.06184769,-215.4800415,-19.06200218
1349,7.921712399,-3.817462206,14.3357296,5.350429058,-222.2375488,-21.86044312
1350,9.070056915,-4.980115414,13.64026737,8.021333694,-228.1657562,-32.46050262
1351,9.734259605,-1.045493007,11.01397038,15.03164101,-226.3409576,-38.7669487
1352,10.4434166,0.621191323,8.493004799,-0.47805354,-200.7389069,-29.89980316
1353,11.38250923,-0.872291386,9.518758774,1.923338413,-171.9523163,-17.66842461
1354,12.68609428,-3.423283815,9.567374229,3.789761305,-157.0003052,-8.809807777
1355,12.88024712,-2.443608284,7.57921505,1.152618527,-127.4522095,-9.077406883
1356,13.1452055,-1.461510539,5.529785156,-4.572432041,-93.76198578,-8.091368675
1357,12.5176363,-1.089962602,5.52536726,-1.19015193,-67.93669128,-4.678095818
1358,12.03785706,-1.271572232,4.156730652,-5.124240398,-34.91088867,-4.595271587
1359,10.8046484,-1.045578241,3.127940893,3.385339499,-2.164951801,-4.059945583
1360,10.63508224,-0.940589964,1.630516291,4.07016325,34.29560852,-2.169302225
1361,8.254876137,-0.527634859,2.167654037,-7.667284489,66.84989166,6.273451328
1362,4.68333292,0.141025141,4.899767399,-31.08373451,97.29022217,18.06258774
1363,4.167690754,-1.150924921,8.469145775,-92.60707092,105.2514038,23.39764404
1364,0.080825508,0.964198291,2.276078939,-113.2077942,122.3784256,27.2636776
1365,-1.580765605,1.380039692,0.710375428,-56.7242775,87.0637207,16.36934853
1366,2.790828228,-0.512235165,3.823560238,-55.82313919,79.74432373,31.86549377
1367,2.557953596,-1.190374613,5.920900822,-47.60918808,87.95480347,34.18013763
1368,3.12079215,-1.99884963,6.218123436,-40.93484116,59.4012413,24.67118645
1369,2.055770636,-2.711612701,6.28330946,-13.94930649,37.73851776,15.16791058
1370,1.309976578,-1.97519803,6.051544666,-4.925967693,16.00418282,3.415437937
1371,1.124532938,-1.366896152,5.969315052,-3.18259573,-2.502117634,3.013058901
1372,2.290485144,-1.596996069,6.604964256,3.740296602,-8.429070473,12.77770805
1373,1.774174333,-2.029605865,7.890745163,-11.2058382,-11.19588757,9.666686058
1374,2.508739471,-2.260187864,8.282567978,-13.2553463,-13.61456394,6.390678883
1375,2.727198601,-2.692847729,7.948439598,-3.309655666,-25.90522385,5.414801121
1376,2.642410517,-2.566582918,7.965335846,11.59346485,-37.81446075,3.388905287
1377,3.60397625,-2.255264521,7.992900848,20.23564339,-45.98103333,2.471321106
1378,3.791324615,-1.999218583,8.317051888,23.76390266,-52.31945801,5.298285961
1379,3.883115768,-2.454740286,8.336828232,16.51446342,-53.63822556,0.081020273
1380,5.009168625,-1.947881222,8.357321739,11.11953831,-55.12064362,-0.683687508
1381,6.062001705,-2.04097271,8.760609627,7.365867138,-55.8693924,-2.905486107
1382,6.228982925,-2.302690268,8.627808571,2.553821325,-51.5507164,1.414327383
1383,6.804965973,-1.203951836,8.435746193,1.240989208,-45.45492554,7.554284096
1384,8.065832138,-0.671004772,8.505205154,0.514414608,-38.1865387,9.114424706
1385,8.444122314,-1.045292735,8.560180664,0.585385978,-24.09877586,9.341529846
1386,8.285531998,-1.275719762,9.165093422,3.610426188,-8.863716125,9.826196671
1387,8.020773888,-1.595624924,9.552639961,9.812880516,-5.486719131,11.87250233
1388,7.914443493,-2.027539253,10.43921757,11.50121784,0.190769911,6.390429974
1389,7.912991524,-2.014585018,10.61347389,6.170376778,6.065070152,-0.093383938
1390,7.91326189,-2.901396751,10.34367085,14.66415119,8.191636086,-7.409584045
1391,8.248288155,-4.151425362,10.72227859,13.81263542,13.34977627,-8.394561768
1392,8.684220314,-3.622355223,9.839635849,-0.522936165,30.1833744,-5.443279743
1393,8.993675232,-1.475733161,9.215815544,-1.499335051,59.5606308,0.359395504
1394,9.288565636,-1.105517268,9.240305901,7.248851776,76.45442963,15.35561275
1395,9.91293335,-2.433352232,9.255981445,-22.31171608,93.52028656,31.11545563
1396,10.23795509,-2.835748196,7.764451981,-54.41021347,139.4250336,41.21646118
1397,10.44773102,-2.850607395,6.500825882,-60.85704803,175.5632629,52.21052551
1398,10.26662731,-2.982633352,5.079781532,-35.92109299,191.022522,57.37324142
1399,8.639453888,-3.345289707,3.597689629,-10.31547832,184.1572266,63.73535156
1400,7.572354794,-4.166668415,2.862748384,-8.24232769,190.1004639,64.61540985
1401,5.783450127,-2.172294378,2.724463463,-2.370799065,192.0820923,65.00576782
1402,4.335752487,-0.079023927,3.563037157,11.44785595,189.896759,66.12870789
1403,1.84447217,-0.339111865,5.276993275,14.53303242,191.7717896,72.01564026
1404,-0.263358057,-1.972654343,6.239523888,15.37238598,206.3818665,69.26891327
1405,-1.889438868,-2.068337202,6.846590519,-8.989010811,211.1424255,65.30117798
1406,-3.614381075,-1.610645294,6.53924036,-43.32109833,206.9420624,63.19774628
1407,-4.601506233,-2.215600729,7.424431324,-67.77697754,186.8851624,58.11523819
1408,-3.026848793,-4.559844971,7.465000629,-72.03461456,162.1764984,57.9005928
1409,-2.456443548,-3.866721392,8.35478878,-25.48270798,124.1117477,54.98967743
1410,-4.282186508,-3.835134983,8.950474739,-3.812926292,101.3338318,47.89257431
1411,-4.265587807,-3.31284523,8.968271255,38.45825577,84.10735321,38.54653549
1412,-3.176771879,-3.254468918,8.588756561,50.92532349,68.3135376,30.53808975
1413,-2.684825182,-2.555704594,9.000041962,32.68766785,42.39316177,19.92210197
1414,-5.504097939,-2.517825603,9.006004333,20.53409386,25.25932121,4.785706043
1415,-4.170320988,-1.866997123,9.869338989,14.7237196,8.612266541,-6.31012392
1416,-2.19852972,-2.943817139,10.6746788,6.132431984,-5.07615757,-9.00583744
1417,-2.005169868,-3.57523632,9.292232513,13.61530304,-34.50188446,-12.5999651
1418,-2.961183786,-3.546130657,10.14256287,27.06925774,-48.15710068,-11.39242649
1419,-2.973580122,-3.604817629,9.143384933,30.46076584,-72.53108978,-11.87023926
1420,-1.577894092,-2.62045145,10.64305878,18.55339241,-86.06473541,-20.12981796
1421,-1.087019086,-1.124022365,10.85528374,-0.644601524,-90.13658905,-21.50123024
1422,-0.915047586,-1.936558366,10.85926247,-14.50530148,-100.7723465,-18.81924438
1423,-0.179027393,-3.837794304,10.42552853,-14.11474514,-106.995224,-25.4470253
1424,-0.176605195,-4.894588947,10.95356655,-4.10788393,-111.904007,-31.57766151
1425,-0.371020257,-3.82612586,11.32675552,5.981357098,-119.6074982,-31.90955734
1426,0.1355654,-3.020152807,10.94182873,11.95011806,-122.6280975,-37.36541367
1427,1.423352718,-3.908733845,11.41223907,7.308383465,-119.0060883,-43.38990021
1428,2.125229836,-4.4697752,12.09370327,5.416791916,-120.3828506,-40.17925262
1429,1.785591245,-3.969573498,12.71953106,23.46504211,-135.7352753,-36.23143387
1430,1.708681583,-3.474620581,12.62107658,51.83548355,-166.6155243,-32.01429367
1431,1.795463443,-2.698897362,12.68421555,79.39329529,-194.6469727,-32.37086868
1432,2.335880518,-3.036754847,12.80782032,75.73688507,-217.5774689,-34.40853882
1433,3.964371443,-4.070780277,12.80506897,51.98534775,-226.9924622,-37.7918396
1434,5.588686943,-3.020450592,11.49968624,42.05958176,-229.8697662,-35.77335358
1435,7.823081493,-0.394776165,11.04946327,33.09830093,-224.3072205,-30.91673851
1436,9.442584038,0.441982925,12.10318947,12.22732925,-231.7945404,-28.85818863
1437,9.534194946,-1.823757648,11.91359138,-9.444641113,-222.2827148,-27.84831619
1438,9.382638931,-3.841049433,9.43648243,-29.23206902,-188.1999969,-32.28254318
1439,10.23605824,-1.789526701,8.523434639,-12.62750149,-173.8925934,-36.95140457
1440,10.41370869,-0.49281013,6.973659515,0.892680407,-148.3775177,-26.78264046
1441,10.75644779,-1.821875334,7.417036533,-5.683146954,-124.7371521,-14.60083199
1442,11.99491596,-4.571709156,8.434189796,-16.60564232,-93.60302734,-16.93108559
1443,12.42872524,-4.108942986,7.058792114,-8.407450676,-67.28187561,-17.85419464
1444,12.23357677,-2.341352701,6.035842419,2.150174141,-48.88062668,-16.08057022
1445,11.52937603,-1.095885754,3.547481298,10.10814571,-27.28809929,-13.11748981
1446,9.792257309,-0.152260259,2.04604435,10.79331112,0.447243035,-13.30901337
1447,10.73456001,-0.451140612,0.809361815,12.20456886,16.80278587,-8.467535019
1448,9.826563835,-0.371016324,-0.207551375,20.85035515,37.88008118,6.102374554
1449,9.29812336,0.194808856,-0.24247463,6.214781761,106.8199692,-0.973949432
1450,7.25257206,-1.429942966,4.532921314,-32.02334213,132.5205841,-4.754118443
1451,5.038463116,-0.522055686,7.196881771,-104.2599487,130.9259949,22.65805054
1452,-0.11984513,0.607839346,0.047473717,-102.1901474,85.69808197,30.22086906
1453,0.889757216,2.588541269,-3.906073332,-30.16872025,114.6015854,7.011011124
1454,3.861298084,0.480742782,2.094143867,-58.99617004,121.3126678,38.58504486
1455,0.070169009,-1.346277952,4.172851563,-57.88970566,111.1909714,48.7195015
1456,1.853257775,-2.680737495,4.981065273,-55.49484634,105.8149414,34.26343155
1457,1.619846225,-2.773196936,6.170424461,-27.30861092,92.8453598,32.75418854
1458,-0.782061517,-1.901009202,5.849120617,-17.39132118,73.19051361,23.00838089
1459,-1.338884711,-1.96322751,4.998709679,13.38187218,49.16197968,18.26009178
1460,0.086791694,-1.294132233,6.535840988,7.563789845,30.1514225,16.87072945
1461,1.522724748,-2.703752756,8.659410477,-10.8514719,25.64025116,13.63574123
1462,1.136170864,-3.069473267,8.183794022,5.78772831,14.18720627,10.00800228
1463,0.904212773,-3.797736406,8.126132965,32.67528152,-3.248893976,5.047354698
1464,1.060545683,-2.83003664,8.253547668,43.57346725,-17.60720253,-2.58275342
1465,1.329986453,-1.972646117,8.967784882,41.43300629,-31.93065262,-7.14176178
1466,1.900459051,-0.928969979,9.998978615,28.93927574,-47.36486435,-10.28241062
1467,3.092642784,-0.733074784,10.27534103,12.46526051,-68.31495667,-12.01045418
1468,5.316837311,-1.807247162,10.48281288,1.4008255,-83.10515594,-11.8300705
1469,6.680549145,-3.612059593,10.04236889,-3.698400259,-84.16120911,-8.35005188
1470,7.285484791,-4.654816151,9.656366348,2.575397015,-80.23094177,-8.895814896
1471,8.098615646,-4.925500393,9.669159889,17.16368103,-72.34675598,-16.02667999
1472,8.270364761,-4.20310545,10.30048084,36.33327103,-57.38472366,-16.38604355
1473,8.639328003,-3.236094236,10.51610661,53.43553925,-43.18845367,-6.609917164
1474,8.318479538,-2.107268333,9.879522324,58.85920334,-23.5969677,-1.767096281
1475,7.655235767,-2.598193884,11.6038208,43.66027832,-2.711982489,-15.13983154
1476,7.397860527,-1.81180954,10.46016693,17.14442444,-4.521738529,-32.09942245
1477,9.365376472,-2.440024853,10.72959995,15.48032856,0.372109413,-32.41309357
1478,8.722005844,-3.241166592,10.17456627,14.11599636,5.724555492,-28.29888153
1479,8.806791306,-2.887482882,10.13571453,12.80170155,23.49086571,-17.4799099
1480,8.746256828,-1.165978193,8.942946434,5.898377419,47.09165192,-5.71690321
1481,9.05208683,-2.028275967,8.94451046,3.224521399,70.07452393,4.408885956
1482,8.930482864,-3.230354071,9.576047897,-16.97236633,88.88197327,9.454622269
1483,10.32878113,-3.343371391,9.411455154,-2.848331928,90.87257385,13.15940762
1484,11.72369385,-2.608706951,7.284434319,27.42796326,92.91989899,22.63945007
1485,10.69382381,-2.604430676,4.786657333,43.38315201,91.98097992,24.78096962
1486,8.945175171,-1.77848649,3.316046953,22.15262794,118.2875824,22.31371498
1487,8.036423683,0.151203334,2.639837742,18.89797592,160.0912018,21.44554901
1488,6.361649513,-0.46705395,3.305832624,25.38023186,176.2499695,19.11273575
1489,5.141335011,-0.405335814,3.736429691,27.73374176,193.6145935,14.33868313
1490,4.435984135,0.906415761,5.274176121,28.47683525,216.6595917,14.32879066
1491,1.705117106,1.212129474,6.098823547,9.076100349,227.8177032,24.09060097
1492,-2.145575047,0.221319392,6.813506603,-15.17386341,229.3253021,36.81956863
1493,-2.819087029,-1.389723182,7.156205654,-44.48685837,207.6107635,38.98302078
1494,-2.230682135,-0.944773078,7.851878643,-57.68982697,198.5112,43.58982468
1495,-2.448197842,-1.323677778,8.525732994,-63.54648209,176.2955017,44.38303757
1496,-3.581779003,-2.027001381,7.308213711,-37.25400543,141.6093903,50.72727585
1497,-3.480562687,-3.374164104,10.06754017,-15.66501808,143.8781128,44.93912125
1498,-3.262413979,-2.182260752,9.178281784,-17.35121536,140.6016541,37.71755219
1499,-2.10082984,-1.768705368,10.39225483,-17.10970497,108.5432129,26.39462852
1500,-2.834703922,-1.019417405,10.38208485,-22.06080627,75.81191254,23.09331131
1501,-3.993304253,-0.472652853,11.09028625,-30.56345749,58.0066185,16.3890667
1502,-3.519874573,-1.533752084,11.58406925,-44.39064026,39.2954216,8.349261284
1503,-2.988180399,-2.101376057,10.48959827,-44.02732849,11.16225433,0.994516194
1504,-3.442713499,-2.641939878,9.77022171,-28.4961853,-17.791996,-4.970752716
1505,-2.639195442,-2.689870596,10.09961128,-26.29146194,-33.73049164,-11.64806843
1506,-1.983614564,-2.984943628,10.11223507,-34.12712479,-42.99763107,-9.600190163
1507,-1.744832635,-3.052154064,9.685058594,-27.93441582,-55.65555573,-11.41366768
1508,-1.324654102,-2.648842573,9.572956085,-15.35852718,-71.23667145,-20.29514313
1509,-0.662087739,-2.725074768,9.689457893,-9.793141365,-76.0253067,-32.77827454
1510,-0.549188912,-3.54970336,10.93752956,-8.988215446,-78.63993073,-38.7195015
1511,-0.151864961,-2.74294281,11.0622406,-8.549243927,-82.95150757,-42.41027069
1512,0.168419421,-2.210400343,10.52471638,-3.432369709,-90.69655609,-47.24329376
1513,0.129245669,-2.820127726,10.78517532,4.776742458,-104.9405746,-51.2970047
1514,0.168683738,-3.961729288,10.93048859,11.04094315,-118.874527,-45.34295273
1515,0.373468667,-4.533494949,11.26748085,38.26619339,-135.1277008,-36.3193779
1516,0.633225799,-4.3021698,12.86165905,54.58232117,-161.5128632,-35.52567673
1517,0.965354919,-3.586268425,13.64390373,58.9662323,-197.5370483,-39.0861969
1518,1.542313933,-3.918835402,12.90380096,60.97075653,-216.2668152,-40.5848465
1519,2.353977442,-3.382514477,12.16230488,59.40415192,-225.752243,-35.751297
1520,3.903501749,-0.760932565,11.47827244,56.30553436,-241.508667,-30.0419178
1521,6.119160652,-0.423522979,10.885746,44.04253006,-250.3588409,-21.95300674
1522,8.105271339,-2.373459816,11.34109497,30.60553169,-245.058197,-12.87806129
1523,9.139732361,-2.577591658,11.63666916,11.92640305,-235.5366211,-18.66640282
1524,9.813100815,-0.331595272,11.88619995,-0.088200182,-222.9386902,-25.96985435
1525,9.667174339,-0.144538909,10.65398407,-19.65840721,-204.5032959,-27.77284431
1526,9.611869812,-2.59291625,9.238367081,-33.39783096,-190.6345825,-28.64718437
1527,10.89938927,-2.756259918,7.00367403,2.256272316,-183.8304138,-25.40013695
1528,11.61514854,-1.085772038,7.011632919,2.536496878,-151.0305939,-12.43230915
1529,12.32135487,-3.017221928,7.12735939,-23.470541,-119.5122986,-2.643394709
1530,12.68905926,-4.306772709,5.81613636,-48.09295273,-74.90823364,-3.615756273
1531,12.05411434,-3.475967646,5.986096859,-38.52732849,-42.50431061,-4.196369648
1532,10.30663204,-2.047368765,4.684203625,-22.06933022,-19.66884995,-7.828009129
1533,10.1056366,-1.158483982,3.784159184,-6.462893963,-0.798220217,-10.78809929
1534,9.741547585,-1.139985204,1.53082037,6.997695923,8.903819084,-10.09614849
1535,10.29336166,-1.40080297,0.117682904,22.65229034,31.97167969,-10.60936642
1536,9.587296486,-0.867222846,1.926368594,8.329636574,60.94428253,-3.124406815
1537,9.122573853,-0.470642149,2.464653254,-81.05923462,174.1787567,6.578305721
1538,2.641736031,1.116493106,0.372988164,-93.18730164,180.4998016,23.60275841
1539,-0.054076068,0.244279325,1.312276959,-18.00209618,110.0835648,23.97181511
1540,1.353605032,-0.324329436,1.701698661,-24.77305794,105.0181732,22.42296219
1541,1.511547565,-0.511245549,1.982545972,-5.744175434,101.1855621,35.56363297
1542,0.531051397,-1.954249263,4.62347126,-18.71663666,95.41384888,25.48365593
1543,2.943645716,-2.263808489,5.147037029,-22.27557373,86.86968231,18.7387352
1544,3.28442812,-1.66368711,5.126977921,-5.332163334,95.27082825,15.21788216
1545,-0.505759716,-0.523922384,6.124453068,2.483253241,70.26357269,11.12843704
1546,-1.089126706,-0.25720191,5.438049793,5.710628986,41.83830261,15.56281662
1547,-0.614085555,-1.056105971,5.965099812,-10.16545296,20.73926926,15.53799057
1548,0.885671139,-2.386328936,7.235762119,-18.17059326,10.97278404,18.78091431
1549,2.704080343,-4.107269764,7.49234581,-5.971227169,4.371423244,21.82065582
1550,2.123661995,-4.46462059,7.679127216,8.412252426,-0.357566565,16.81505966
1551,1.171376705,-3.118311167,8.226952553,17.13086128,-9.17380619,11.5912981
1552,1.221185088,-2.17083168,8.510961533,18.76458549,-24.31246376,6.985778809
1553,2.457234383,-1.489329934,9.27148819,15.38599014,-42.86513138,0.945800722
1554,3.966189146,-1.300735116,9.682647705,10.62741566,-56.33413696,-4.50980854
1555,5.885632515,-2.523694038,9.808991432,9.327104568,-58.39249039,-7.298572063
1556,6.871825218,-3.20102334,9.456064224,12.05096722,-53.39904785,-5.720843792
1557,6.216988087,-3.081335783,8.961924553,15.26661873,-50.45588684,-0.717252314
1558,6.823884487,-2.998546362,9.375472069,15.14020348,-47.69859695,4.879153252
1559,7.86836195,-1.911733031,9.394240379,12.7723465,-48.7245369,10.64078617
1560,8.00036335,-2.280483484,10.04481125,26.65320015,-46.79577637,12.45539093
1561,8.363633156,-2.78951025,10.64604378,26.08346939,-42.34643173,8.168685913
1562,7.811356544,-3.00033927,10.99402905,33.02072144,-22.15048218,-1.643819213
1563,7.950670242,-3.337543488,11.71348953,14.89263344,-13.47229767,-16.94942284
1564,8.980755806,-2.18508482,9.903813362,13.65792179,-0.768075466,-23.2985363
1565,9.526545525,-3.201058149,10.37464046,13.59296036,12.34122753,-14.39376354
1566,9.383070946,-4.004872799,9.72185421,10.04009151,33.18300247,-9.972927094
1567,9.712511063,-3.173378706,8.68432045,22.0520153,60.26288223,-1.574115276
1568,9.495669365,-2.392942429,9.675058365,21.52396011,95.23677063,11.6771698
1569,9.468737602,-3.31780076,10.47709656,13.99825859,134.261673,17.00804901
1570,9.902729034,-3.775436878,9.69077301,22.48058891,149.8577881,17.81161499
1571,10.63048744,-1.896524072,8.126481056,28.7114315,158.5294952,22.84875488
1572,10.14837933,-0.632941604,6.003186703,26.63837624,178.0242462,26.85010338
1573,7.879913807,-1.538295865,5.589134693,9.709019661,186.1025696,26.17800713
1574,7.703980923,-1.361081243,4.25457716,12.79093361,179.0841827,30.739748
1575,6.12728405,-1.393594265,3.838387012,-1.367180467,190.0270844,33.34680557
1576,4.396145344,-0.519655406,3.871147871,6.40694809,192.2870636,32.4907074
1577,2.573872089,0.502824068,4.783635139,22.27537918,194.5757751,32.14460754
1578,0.21267432,0.351908952,5.141674042,11.97818184,202.9571991,33.14137268
1579,-1.799307942,-0.96914798,6.560180664,-3.002463579,209.1868591,35.07562637
1580,-2.841569901,-0.915434003,8.540039063,-16.57204247,203.3100433,36.42284393
1581,-3.632153749,-0.091143116,8.325941086,-28.96669006,184.1754913,43.70708466
1582,-4.395092487,-3.130271196,9.684412003,-64.27646637,169.1395416,32.83637619
1583,-2.77263999,-3.996893406,9.861481667,-67.90393066,126.2173462,37.98021698
1584,-3.386812449,-3.856583118,10.04288101,-17.24048042,96.62237549,38.47743225
1585,-3.021561623,-1.400817275,9.50174427,14.93150234,73.59235382,28.87542725
1586,-3.533682585,-1.269130349,10.64506149,30.17628098,53.39445877,20.57803726
1587,-4.331456661,-1.332235098,8.89740181,33.6480484,18.99669456,10.56882763
1588,-3.600176573,-1.744081259,8.032719612,34.31004715,-7.866233349,7.667637825
1589,-3.184263945,-2.371026278,10.25511742,24.41405678,-24.00894737,-5.332317352
1590,-3.27690053,-1.639387131,10.66462898,22.66548347,-42.31339264,-17.695467
1591,-3.222835302,-1.608069777,10.87995052,28.29068565,-67.78035736,-26.07123947
1592,-2.700824022,-1.521723986,10.6221447,34.69111252,-99.53761292,-36.72702408
1593,-1.195657849,-1.08734405,11.99982738,24.83213425,-123.0788193,-39.63579941
1594,-0.588298082,-0.707528353,11.82755089,13.45869541,-149.6807098,-39.84820938
1595,-0.05766201,-1.238205314,12.41999054,13.41024399,-174.251358,-39.49185562
1596,0.801566243,-1.452258468,12.8425169,9.274624825,-195.7096558,-36.39012146
1597,2.950462818,-1.987705588,13.60441113,14.65308475,-217.2143707,-35.52941132
1598,4.345638752,-0.648363888,13.48600674,29.19283295,-237.0416107,-34.50544357
1599,5.767422676,-2.090637684,12.39318657,11.22585201,-247.3764801,-35.052948
1600,6.514601707,-3.873650789,11.18885708,9.369662285,-233.9646912,-34.40465546
1601,6.568972588,-2.336593866,11.5162468,17.97425842,-224.9625549,-40.52835083
1602,6.959464073,-1.042376161,11.30967331,19.76822472,-220.2112732,-41.53139114
1603,7.915014267,-1.041305542,11.20302391,14.69082165,-219.4597778,-32.97536087
1604,8.885998726,-1.168761134,10.89891434,10.30748749,-215.6898346,-22.30005646
1605,9.973877907,-2.06689024,10.38651085,15.22310829,-209.3656464,-12.28395939
1606,12.34468651,-3.681220293,9.551024437,7.48519516,-157.3196106,-13.35499668
1607,11.77504158,-1.606451154,7.990489006,-7.719435692,-85.17259979,-11.92426777
1608,10.93708515,-0.879551291,6.574254513,-0.062252179,-47.19106674,-8.944706917
1609,10.29493999,-0.764736295,4.674658775,-10.0403223,-17.6528492,-7.525317192
1610,9.828334808,-0.085099436,4.204734325,-22.26074409,19.24264336,-1.872434855
1611,7.862881184,-0.372721791,5.123337746,-22.83403778,40.40797424,1.067987323
1612,6.775452614,-0.182106301,5.085701942,-36.41225052,35.87458038,7.267883301
1613,5.649909973,-0.056343041,4.018087387,-77.0134964,83.61758423,15.8677578
1614,3.278005838,0.183591023,3.100708961,-90.82197571,106.7219391,10.14673424
1615,-0.687521756,-0.521287024,1.750231266,-68.20043182,78.53648376,12.73483849
1616,0.433231711,-2.068673134,3.523733377,-46.07441711,33.62604141,19.4678688
1617,2.526211739,-1.627652287,4.130777359,-45.05128098,41.95814896,23.45953941
1618,2.714608431,-2.086899757,5.865003586,-27.81351471,44.18287277,18.55711937
1619,0.545119584,-1.92933929,7.224300861,-16.80420494,38.95655441,16.89956856
1620,1.22478044,-1.89804244,7.920859814,-12.5689249,26.71035576,9.32254982
1621,1.062293172,-0.762161314,8.757993698,-7.972319603,26.25489998,0.520713925
1622,2.30048418,0.009230582,7.948695183,-21.18379021,-6.076751709,4.446455956
1623,1.231542826,-1.322022915,6.552000046,-2.514266253,-28.01414299,12.3248024
1624,0.026136938,-3.527685881,7.327616215,10.43966579,-43.7768364,9.79828167
1625,3.623436928,-3.631062269,8.192669868,17.04743195,-41.66440582,7.577412128
1626,5.339355946,-1.84192872,9.329730988,10.08930206,-42.81643295,6.968271255
1627,4.49284029,-1.759135127,9.471630096,4.26619482,-45.60865021,14.52923679
1628,3.301190853,-2.619840622,9.425911903,2.091021776,-50.23190689,15.74545288
1629,3.777566433,-2.814806223,8.703347206,12.92444134,-52.43979645,12.05572605
1630,5.097752571,-2.29937315,8.724953651,20.2888279,-50.0314827,5.625202656
1631,6.363572598,-1.077605247,8.36600399,11.73799038,-45.88418198,4.857890129
1632,6.373501778,-1.384432435,8.787784576,-5.797694683,-37.01116943,9.420610428
1633,6.537056923,-2.349856853,8.508905411,-11.64379311,-29.85054588,8.971348763
1634,7.185065746,-2.805575132,8.886725426,-10.38985062,-21.28627014,5.383806705
1635,7.913234234,-2.396585703,8.822246552,-6.798919678,-8.134392738,5.158534527
1636,7.279815674,-2.330057859,8.892316818,-2.398783445,4.987542629,6.45120573
1637,6.313715935,-2.101886272,9.16737175,4.612022877,8.787521362,3.097235918
1638,6.502128601,-2.183977842,9.699481964,21.6191082,6.340594769,-2.102614164
1639,6.778028965,-3.019855022,10.60112476,27.36313629,-2.189469814,-12.17371464
1640,7.937474728,-3.456856012,11.66550827,39.50591278,-11.27336788,-17.84029198
1641,8.194184303,-3.193506241,11.48813915,49.75752258,-19.42086029,-6.067966461
1642,7.400434494,-2.9675982,11.4685936,62.02842331,-12.71381187,-1.656575799
1643,8.245311737,-2.053174496,11.640378,30.59633064,2.326211452,-9.114273071
1644,9.982435226,-0.793689251,9.076947212,13.8384161,27.79196739,-6.618011475
1645,10.18002319,-1.580433965,8.625997543,0.024927991,69.31593323,9.574915886
1646,9.445355415,-1.336019754,8.535732269,-16.17167091,115.5874329,20.07912636
1647,11.63297272,-1.302046299,8.616526604,-13.22258949,145.1746826,25.68729782
1648,12.58302689,-1.072132349,5.840455532,-20.99044228,170.8353271,32.58798218
1649,10.36152458,-1.110722899,3.27298665,-10.00113392,180.2277679,40.4705162
1650,8.318518639,-0.863788962,2.432143688,-0.03351853,186.1279297,43.16676331
1651,7.554712296,-0.373452276,2.201095581,4.661842823,197.702179,41.36291122
1652,6.218544006,0.938646197,1.339135051,0.603541911,219.7144775,43.7040596
1653,2.670790672,-0.425240457,1.710189939,-6.422838688,244.814743,50.12365341
1654,-0.749298871,-2.443511963,2.263500929,-15.15341187,248.8536224,51.89488602
1655,-3.313921928,-3.086651564,3.741434097,-12.07833481,236.0516968,49.95475006
1656,-4.322648048,-2.979525805,6.759467602,-27.18681717,213.1236267,50.79076767
1657,-4.156620026,-3.176429033,8.543838501,-50.3536644,186.8355713,46.46478653
1658,-4.402381897,-3.194668293,9.537794113,-37.22702408,166.2366638,40.54898453
1659,-4.113610268,-2.699043274,10.22733974,-14.14343166,147.9423981,33.44898987
1660,-3.686794281,-2.574827433,10.74398422,-0.235240519,125.330574,23.92276764
1661,-5.432013988,-2.137206554,9.461517334,15.06243324,89.44532013,11.07575035
1662,-4.88523531,-2.646381378,9.616440773,21.44416618,54.5476265,-6.161491394
1663,-1.804298639,-1.846777678,8.603587151,6.431936264,12.08870983,3.145811796
1664,-2.83868432,-2.43576169,10.21676922,11.56952,-13.58597755,4.420571327
1665,-3.788997173,-3.6686306,10.91353035,-5.061050415,-32.29754257,-3.274826765
1666,-3.739496708,-2.862267017,11.19995594,-1.152478099,-45.01530838,-14.17727661
1667,-3.009815216,-2.417532444,11.27597523,-6.109895706,-69.69443512,-20.7057724
1668,-2.815176725,-1.546118736,10.5405941,-5.716386795,-96.6235733,-19.11475945
1669,-2.524908304,-1.75630641,10.0346117,-15.90956497,-124.4675903,-18.52128601
1670,-2.314315557,-3.630500555,9.503223419,-17.44981575,-145.7859344,-22.62427521
1671,-1.083632588,-4.833761692,10.7717638,-6.410329342,-157.8375092,-31.01062965
1672,0.324349463,-3.931043863,12.02074051,7.640540123,-170.3770752,-41.44106674
1673,1.815740943,-3.859885931,12.69629765,17.28759193,-184.160614,-44.55643082
1674,2.22902298,-4.83516264,12.70982075,26.35341644,-198.731781,-46.30403137
1675,2.01325798,-4.855439186,12.38960266,35.64289474,-203.615387,-47.64804459
1676,2.921066999,-2.376960993,11.86571789,33.70887756,-213.4290771,-50.59101486
1677,5.009767532,0.464636177,10.29714775,34.22515106,-232.4238892,-49.49824905
1678,6.837530613,-0.986808658,10.39131069,53.90143585,-233.7408447,-30.80149651
1679,8.395432472,-5.370776176,11.54251385,60.75588608,-232.7622223,-20.34365845
1680,9.24639225,-1.94837904,10.48078823,45.48083115,-204.0362701,-30.31101799
1681,8.432927132,1.243451595,10.39086056,8.318583488,-187.1462402,-30.79759026
1682,8.582209587,-2.365953445,11.33435917,3.155091524,-187.0962219,-21.37030983
1683,9.841129303,-3.844532967,9.788075447,11.39759064,-172.3074341,-20.14125824
1684,10.52252674,-2.490715504,8.487407684,26.64910698,-151.4218597,-24.45458221
1685,10.59246635,-0.589408636,8.439452171,29.93971825,-135.1185455,-20.11573219
1686,11.02919292,0.008930206,7.561380386,36.06045151,-149.3445282,0.280629694
1687,11.85294914,-1.890048981,6.377444267,7.795956612,-117.4507294,1.280742168
1688,13.36710739,-2.055024862,7.278920174,-21.91420555,-59.42301559,-8.136094093
1689,10.83967972,-1.141035199,7.653120041,-13.05263805,-24.91455269,1.643949151
1690,7.985234261,-1.10440743,5.17742157,0.527257144,-15.31251621,7.721768856
1691,8.697833061,-0.663542509,1.942162156,10.80204201,-11.70228577,2.214584589
1692,9.934267044,-0.411968529,1.63418746,-3.326392651,24.70955467,4.504227161
1693,8.560528755,0.063477844,1.626130939,-11.31115055,57.19067764,0.248452529
1694,7.002998829,-1.435815096,4.374938965,-34.67497253,97.82363129,-5.967934608
1695,5.664893627,-1.072618484,8.416977882,-80.82494354,108.2591248,-4.711055279
1696,2.830998421,-0.708075106,5.95623827,-156.3756866,95.04459381,14.57824516
1697,2.317138672,0.671109259,-4.948698044,-60.39848328,94.68968201,4.807314396
1698,1.842357278,-2.150509119,-0.124143481,-34.44547272,103.0696335,15.38099575
1699,0.667201519,-2.488796711,3.197870255,-24.97769737,118.5679016,12.91094303
1700,3.006546736,-2.359773159,5.518728733,-27.77714348,112.4125443,1.43078649
1701,3.352971315,-0.66240865,5.127715588,-32.15731812,109.2664337,5.760642529
1702,1.602136731,0.527887046,6.367313862,-23.70308113,95.39128113,24.85882759
1703,-2.556939125,0.661370337,5.363913059,-2.551570892,54.44291687,28.05839729
1704,-2.107567787,-1.19027257,5.726946831,-6.296834946,19.88287735,17.84252548
1705,1.090639234,-2.635024548,7.005964279,-12.39361477,8.700483322,9.445353508
1706,1.750162482,-2.974051237,7.635995388,1.634187102,-7.225487232,6.333479404
1707,1.569687128,-3.509251833,7.983507156,17.4450264,-24.53700829,7.039181232
1708,2.032815456,-2.40165782,8.57632637,18.2781353,-39.222435,7.665324211
1709,2.862886429,-2.047484636,9.287395477,-1.49688375,-49.9823761,8.498621941
1710,3.975506544,-3.488742828,9.752209663,-20.44438362,-58.20530701,6.788654327
1711,5.397648811,-4.199486256,10.1766386,-19.23838234,-62.28572464,1.668391466
1712,6.376581192,-4.278458118,10.5872097,-4.580922604,-63.8277359,-0.615597248
1713,7.012329102,-3.904245853,10.21377277,14.39861584,-61.03213882,-3.787914991
1714,7.954133511,-3.62387085,9.842801094,35.45011139,-56.55517578,-2.639544964
1715,8.043507576,-3.906304598,9.664690971,43.03609848,-51.73994064,-1.892731905
1716,8.436412811,-3.173604012,9.636266708,54.47903061,-41.90327835,-2.639202118
1717,8.57549572,-2.130637884,9.343553543,54.07606125,-21.98198128,5.546272755
1718,6.883420944,-2.144578695,10.204422,70.74947357,-0.886496723,0.077025145
1719,5.950683117,-3.074817181,12.50815392,45.60637665,-2.315371513,-24.83062172
1720,8.1846838,-2.862385035,11.99971294,14.48376274,-2.991152525,-30.11322594
1721,9.552589417,-2.256940603,10.71471596,11.42502213,-2.904767752,-21.41383553
1722,9.284668922,-2.707692146,10.20504951,15.24232388,11.92248917,-15.69287205
1723,7.590386868,-1.563407063,9.638136864,14.03865147,32.8053627,-10.17844677
1724,8.599924088,-0.162664577,9.136348724,6.925354958,42.8429985,-1.033095002
1725,10.1495676,-1.975535393,9.38916111,-28.12101936,79.08118439,10.06899643
1726,10.2779007,-3.22496295,8.547588348,-37.21064377,127.991684,20.76255798
1727,10.98407745,-3.439662695,8.845215797,-27.81879044,134.1154175,31.6841011
1728,11.31113243,-2.384280205,6.817466259,-26.88396835,159.5132599,28.79282761
1729,10.10259628,-1.717752576,4.066135883,1.166803837,172.0066528,33.42045593
1730,9.635247231,-2.176694155,2.36416316,-2.569066286,179.9035034,35.44670868
1731,8.278765678,-2.466636181,3.136826754,2.898409128,204.9624786,34.29377747
1732,6.301451206,-1.274601221,3.606438398,17.59797668,213.0922241,36.16667557
1733,3.769930363,0.210858002,2.762450933,33.37120056,221.4868927,40.70495605
1734,1.01104641,-0.177491963,2.431024313,42.3393898,236.3431549,43.42472458
1735,-2.434872627,-1.024476767,3.23890996,9.115242958,227.3654327,47.79182434
1736,-3.55298233,-1.164034963,5.915445328,-7.238008022,213.2765503,55.94230652
1737,-4.618000984,-0.549914598,6.791602612,-15.0624733,188.6573334,53.39718246
1738,-3.782691956,-1.673458576,9.615060806,-21.40529823,164.3051605,48.43055344
1739,-3.456520796,-1.683470964,10.50552177,-22.06985474,141.496933,42.39210129
1740,-3.567403078,-1.809788227,10.25742054,2.804106951,122.4866028,38.95278168
1741,-3.998076677,-2.389144659,10.49268532,14.07558441,95.9855957,27.04571533
1742,-4.267255783,-1.713858247,10.05583763,22.44957924,66.60503387,16.88891029
1743,-4.298812866,-0.916232526,9.493308067,19.6058712,35.01444626,6.888812542
1744,-3.625294447,-0.580299377,10.50971413,10.02751064,2.725595951,2.65623641
1745,-3.060569286,-1.326929212,10.37669945,2.741707325,-15.49933338,-2.068701267
1746,-3.262198448,-2.985842943,10.69826317,1.237988114,-32.20235443,-4.94375658
1747,-2.643500805,-3.101663828,11.37562275,2.811398745,-50.1296196,-16.73715401
1748,-1.83049643,-1.669600129,11.25422287,7.007072449,-65.71135712,-24.77973747
1749,-1.048071384,-1.039783359,11.28738785,5.076884747,-76.71981049,-29.70257759
1750,-1.04395175,-2.192356348,10.72729397,-3.698770761,-84.43327332,-29.78863144
1751,-0.371737182,-2.533746719,10.91271782,-8.137822151,-87.99713898,-27.77140808
1752,-0.338222146,-1.931823611,11.13046455,-9.666130066,-91.9058075,-29.41545296
1753,-0.294352025,-0.561940372,11.21708775,-11.88670063,-104.0621643,-31.52151871
1754,-0.12600404,0.218854696,10.98474693,-20.66088104,-119.606926,-36.21199799
1755,0.665206373,-1.587741971,11.05609226,-26.63150215,-139.8394623,-40.06395721
1756,0.784031391,-3.269386053,11.84731579,-6.510107994,-161.7328491,-34.17193985
1757,1.235121965,-4.076049805,13.19253254,14.36130428,-185.5296936,-28.36054039
1758,1.955013514,-3.004523516,14.09542942,4.291576385,-208.1329346,-19.32686424
1759,3.058906078,-1.942257047,12.09512901,10.71273899,-227.5897522,-19.64902496
1760,4.666977406,-3.932373285,11.7393446,43.87861633,-217.4559631,-20.99120712
1761,5.539052486,-5.176702023,12.30529022,14.88141346,-215.6252594,-17.08857536
1762,7.437033653,-2.154001236,9.923231125,4.055956364,-224.6956482,-23.38937187
1763,7.703942776,-2.561437368,11.19337368,43.11725998,-207.342804,-15.96396255
1764,7.634027004,-3.233250618,10.71622562,25.75696373,-210.9931335,-14.06655312
1765,8.349967957,-1.680351853,10.51199055,8.667280197,-196.9985199,-22.89058495
1766,8.938292503,-1.306851387,10.08807659,-4.784670353,-184.7201538,-28.84040642
1767,9.316843033,-1.790365815,9.352524757,-19.49079132,-179.122818,-27.2025528
1768,9.545713425,-2.038937092,8.163707733,-18.17241096,-165.1556854,-22.48882103
1769,10.26970482,-2.47768116,8.471158028,-9.301897049,-141.7948151,-17.06755066
1770,11.22909451,-1.673791409,8.107093811,-20.86605835,-111.8612823,-13.49795341
1771,11.68365669,-2.45069623,7.697961807,-42.75292587,-76.69406891,-9.429934502
1772,10.85288811,-3.397477627,6.537031651,-49.19479752,-41.27634811,-9.911250114
1773,10.3349123,-3.026986599,5.385672092,-28.31403351,-20.58110046,-15.30246162
1774,10.43314648,-1.115755558,3.672540903,2.29276824,-14.11092091,-10.87393475
1775,10.84713078,-1.362889886,1.390049338,8.800509453,5.010929108,-7.382173538
1776,11.32465076,-0.792154372,0.79164803,14.81979942,36.14182281,-5.748904228
1777,9.210534096,-0.573175073,0.913494468,9.663041115,67.28969574,-5.648626804
1778,9.703001976,0.076047495,0.759288371,-6.82813549,87.99875641,-0.657611191
1779,9.237520218,-0.623553932,4.368377686,-57.01353836,119.236351,8.043198586
1780,3.256503105,-0.475407541,5.014610767,-148.1310425,156.2398376,17.10944939
1781,-0.442881525,2.343924046,-5.551877975,-50.14900589,92.87649536,22.49386024
1782,0.229803458,-0.144151479,-1.072051406,-1.033665061,102.5543137,14.75787163
1783,3.945858717,-0.287653387,2.720045567,-33.47659302,115.9151154,27.30726624
1784,2.263694048,-1.815156579,5.277441978,-59.19891739,124.6160278,20.37438202
1785,1.084924817,-3.097550392,4.642448902,-42.96219635,98.96372223,7.358184338
1786,2.923842907,-1.580646038,4.847438812,-5.764890671,98.58010101,12.24810791
1787,-0.786249757,0.157024488,5.306307793,14.17332554,63.41122437,16.31023979
1788,-3.086059093,-0.342589229,5.484736919,6.504598618,34.94552994,4.873100758
1789,-0.991713643,-1.817739844,6.190291405,3.813661814,11.65022945,0.971906364
1790,2.406868935,-2.768621206,6.889234066,6.250300407,1.314706445,2.028481245
1791,2.318426132,-3.10653162,7.93479681,6.620518684,-3.247652292,-3.419333935
1792,1.313574791,-2.3036201,8.602096558,8.40117836,-19.03098297,-6.400227547
1793,1.41987443,-2.257267475,8.891530991,8.485452652,-39.21053696,-5.201648235
1794,2.550699949,-2.795687199,9.57943058,8.893135071,-56.34845352,-9.464029312
1795,4.015301228,-3.065422773,10.31946945,12.16435528,-65.21115112,-15.47902012
1796,6.017968178,-3.547007084,10.56363583,18.72829247,-68.55364227,-18.81876373
1797,7.263263702,-3.816028833,9.985165596,30.4553566,-66.19481659,-14.58269691
1798,7.450854301,-3.127142429,9.82420826,36.60832977,-62.25513458,-7.88702631
1799,7.70557785,-3.491993666,9.708799362,40.51760101,-56.84674454,-5.907786846
1800,7.65235424,-2.903306246,9.774718285,52.40982437,-48.21917343,-2.486012936
1801,8.717632294,-2.125491619,10.74943066,53.15652466,-42.88353348,1.82071507
1802,8.941903114,-1.13481307,10.47545624,36.1471138,-32.15031433,2.583081484
1803,9.042841911,-0.140981644,11.37314606,29.47365379,-18.96354485,-4.35357523
1804,7.968475819,-1.159448862,12.00018883,11.08512497,-4.403124809,-18.13874054
1805,8.303258896,-2.519652128,10.46215057,28.64058304,6.59792614,-27.24092484
1806,10.48788261,-3.614934206,11.220994,28.18519211,4.929804802,-18.27735901
1807,9.826377869,-1.730049849,8.242848396,6.088563442,30.27907181,2.366961002
1808,9.190342903,-1.276481509,8.331406593,-4.029082298,66.66342926,4.356794834
1809,9.570469856,-1.863430023,8.884076118,-7.179163933,102.7273712,8.338675499
1810,10.20214939,-1.487427473,8.651203156,10.43517208,120.9755096,16.54466248
1811,11.17254448,-1.034433961,7.95021534,4.706908703,132.3170013,24.47920227
1812,11.07632732,-1.056789756,5.440555573,-7.339410782,141.9490051,26.0389328
1813,9.182284355,-0.813966155,3.840268135,-0.64121598,151.5265656,24.96621513
1814,7.799263477,0.140969142,2.772478342,17.11006927,162.3124084,25.12080002
1815,6.275046349,-0.587774992,3.268625498,19.22788811,180.2220612,26.55554962
1816,4.248012543,-0.266500592,3.990162373,14.23031616,184.4381714,26.30127335
1817,2.55274272,1.192164898,5.310737133,17.00443268,212.181015,32.21247482
1818,0.465261281,0.559133172,5.963932991,-4.483654499,221.1570435,44.53487778
1819,-0.426813245,-2.085129261,7.150537968,-42.23927689,221.4158783,52.8110733
1820,-1.145298839,-2.535624027,7.657141209,-64.05809021,220.594101,61.59627914
1821,-2.186514139,-2.129235744,10.0619669,-69.85168457,217.0232086,61.66959381
1822,-3.299728394,-2.435341358,10.00293922,-80.58573151,196.9406433,55.69514084
1823,-4.532260418,-3.74552536,9.572634697,-47.04839325,170.6251984,44.08314514
1824,-3.472154856,-4.108841419,10.96882439,-30.09507751,140.3134766,39.1288681
1825,-1.848467469,-3.582657099,11.75783348,-35.37797928,105.3704529,45.37419891
1826,-3.136280298,-2.489413977,10.48357582,-2.21979785,77.67484283,41.5387001
1827,-4.017853737,-1.036589503,9.481499672,18.28778839,44.07446671,28.83287811
1828,-3.410010576,-1.661168337,8.833339691,20.16040802,11.84491539,16.13077736
1829,-3.068235874,-1.697699785,9.384157181,2.59147501,-8.970672607,7.89842844
1830,-2.559367895,-1.510832787,10.02849293,-12.73706245,-25.27794456,0.474675
1831,-2.441054344,-1.939065099,9.916989326,-9.685742378,-42.03480148,-12.85969067
1832,-2.207156181,-3.34158802,10.81052017,-9.717487335,-70.66007996,-25.34021568
1833,-2.266168118,-3.546323538,11.19749928,0.489856541,-100.9253387,-37.35211945
1834,-2.053844452,-2.943663836,10.72558784,23.43671608,-135.6889496,-47.29239273
1835,-1.572438955,-2.485673428,11.74932957,40.43468475,-153.7370148,-48.0507164
1836,-1.081140637,-2.602527857,13.59239197,59.5028038,-180.456543,-53.62274551
1837,0.145731747,-3.746107101,12.21754646,65.55400848,-231.9070892,-49.725914
1838,2.864703655,-4.415961266,11.61775494,60.43701172,-256.0566101,-37.38817596
1839,5.434430122,-1.754981041,11.17756176,56.07512283,-264.9728088,-37.2311554
1840,6.749312878,-0.462205082,10.58255291,41.55473709,-263.2265015,-33.99845505
1841,7.322150707,-0.453539103,10.13637447,23.47707748,-245.0828705,-30.64130783
1842,8.180279732,-0.732730865,11.08990955,8.228212357,-229.8441162,-29.94112206
1843,9.267715454,-0.484262973,11.51359367,-0.657609522,-224.8352203,-25.44851685
1844,10.82528114,-2.132407427,12.66961479,-3.073085546,-215.8017578,-19.70506287
1845,10.99810505,-3.046523571,11.76944351,5.137064457,-198.9945374,-21.3759346
1846,11.32419968,-3.027776241,9.605184555,21.19223022,-174.5606842,-15.04608917
1847,10.75315571,-1.913955569,8.242344856,16.08009338,-127.7454681,-11.4549942
1848,10.54052162,-1.206489444,7.121902466,-6.389662266,-91.43683624,-6.48148632
1849,10.37176609,-0.447795779,5.319217205,-10.44397259,-68.18704987,6.229683876
1850,9.416008949,-0.083778083,4.122046947,-14.87574768,-43.01866913,8.844022751
1851,8.268754005,-0.23690778,2.318038702,-20.99325752,-27.16051865,14.67551327
1852,7.123727322,-0.986612499,1.283902884,-18.25761795,-1.70796001,11.08057785
1853,7.574584007,-0.823537648,3.45818615,-22.45600891,38.9823494,9.110741615
1854,4.913846493,-0.41028893,4.941522121,-68.50808716,93.71895599,7.788124084
1855,4.291054249,0.513892114,3.663418531,-104.9008636,150.1421356,9.014735222
1856,0.246274069,1.241258621,-0.113934241,-52.16268158,111.5044861,16.05702972
1857,-2.773673773,-2.202296019,5.169510365,-42.001194,66.22231293,13.18204212
1858,1.817708731,-3.297060013,5.360775471,-50.87794113,51.832901,8.263665199
1859,3.611107111,-2.272422791,5.009041786,-18.87202454,42.80723953,16.63784218
1860,0.529826522,-1.753111362,6.74222517,-14.68831348,23.98451233,18.75370026
1861,2.284665823,-1.667402148,7.495629787,-24.89473534,20.89785194,10.53634548
1862,2.654883385,-1.414254546,7.654684544,-2.350158215,1.989537597,8.469232559
1863,1.334907532,-1.602947712,7.603488922,12.06252861,-15.03902817,6.503899097
1864,0.877414703,-3.229110956,7.851924419,10.74387741,-28.36049652,-0.203506351
1865,3.164993525,-3.207163811,8.464930534,5.574860573,-30.85618973,-6.75775528
1866,4.680780411,-2.1876688,8.857474327,5.942533493,-32.03160477,-2.588147163
1867,3.69995904,-2.265593529,9.455745697,13.75776672,-36.90045166,-7.088149071
1868,3.405460835,-1.980851889,8.862975121,19.76129913,-50.15719604,-12.52459049
1869,4.330735207,-1.563317537,9.036391258,17.13285255,-65.23477173,-10.42898273
1870,6.120007992,-0.987483919,7.716153622,11.91268635,-65.8221817,-3.450853109
1871,6.675801754,-1.75971818,8.21877861,-4.492640018,-52.90245819,1.128295422
1872,7.218131065,-3.11773777,8.518737793,-20.80776596,-40.8383522,-1.630298734
1873,7.454904079,-3.695454359,8.949046135,-8.518813133,-28.82371902,-8.962170601
1874,7.526172638,-3.263551235,8.878846169,9.68776989,-24.57357407,-12.07354164
1875,7.715807915,-3.144227028,9.112730026,21.57885551,-17.7399025,-13.14029503
1876,8.488128662,-3.41437006,9.583724022,30.80175972,-9.875037193,-18.81777954
1877,9.162028313,-3.07928443,9.365570068,40.12429047,-3.122517824,-20.3350811
1878,8.248585701,-2.994625807,9.801440239,40.6755867,7.748306751,-23.8256588
1879,7.86546278,-2.005993128,9.838127136,37.49960327,14.45529175,-30.58990479
1880,8.240704536,-1.570448756,10.8001461,47.25205231,16.50749969,-34.57357788
1881,8.157707214,-0.950310886,10.22946835,48.91235352,25.26127625,-26.70794296
1882,8.739472389,-1.320721626,9.358517647,31.27299118,42.91416168,-20.01787186
1883,9.252735138,-2.630152225,9.499957085,23.97435951,77.54595947,-13.46665859
1884,10.00502014,-2.990953207,9.482583046,10.5717535,118.6153717,-3.229064703
1885,11.10702324,-1.806458116,9.052241325,-8.932587624,142.2883301,11.65547085
1886,11.94555569,-1.121955633,8.077643394,-19.78949356,153.1417084,17.99407578
1887,12.09879208,-0.261923343,6.276238441,-17.48207474,179.2259064,18.85431099
1888,10.37948132,0.317592531,4.237967968,2.111379385,185.7682037,17.72816849
1889,8.461499214,-0.46577391,3.049354315,25.01584053,163.1897278,27.94430161
1890,7.67208147,-0.555684268,2.92715621,18.67074585,173.5292969,33.23829651
1891,5.867162228,0.301538408,2.603120327,7.683032513,179.0648651,36.47681808
1892,3.387277842,-0.389275998,4.378643036,-7.500141144,183.4592285,40.41993713
1893,-0.534775972,1.09327507,3.738665819,-9.084555626,206.8090668,48.53439331
1894,-1.821996331,0.584772646,4.675644875,-18.01668549,214.9279785,49.27542496
1895,-1.593573213,-0.825966597,6.175114632,-52.77072144,216.5967712,55.54224396
1896,-1.984497428,-2.222335577,7.723966599,-72.54992676,212.6262665,60.71941376
1897,-3.009596109,-2.714235783,9.019814491,-78.72851563,201.3583984,46.95962906
1898,-4.461146832,-2.693439245,10.03460598,-76.89502716,173.954422,46.04969788
1899,-5.507743835,-3.147756577,10.18365574,-52.7767601,133.7070465,37.62138748
1900,-4.394067287,-2.061543465,10.37932968,-19.07496262,94.38829803,23.35635757
1901,-3.103949308,-2.014709949,9.729008675,-8.56911087,53.30823135,6.121068954
1902,-2.708360434,-1.646281123,9.516993523,-4.675911903,18.95868111,1.004166365
1903,-3.353239536,-2.876189947,9.892063141,-8.840385437,-13.24567127,4.599282742
1904,-3.310234785,-3.824850559,10.39195347,-15.34331799,-28.17847824,1.442070723
1905,-2.910485744,-3.237427473,11.48664856,-8.776272774,-35.20885468,-9.266708374
1906,-2.297626495,-2.869751215,10.70513535,-4.749313354,-53.04987335,-17.6287117
1907,-1.849748135,-2.360931396,10.25552273,4.34820652,-72.85186768,-17.1008625
1908,-1.272279382,-2.447000027,10.36323738,12.93169212,-80.69353485,-18.68003464
1909,-1.070927739,-2.679121256,10.97909164,12.09960461,-84.04410553,-16.79428673
1910,-0.011749163,-2.819898367,11.29557323,0.512608886,-90.76222992,-18.78763962
1911,0.387083888,-2.086120605,10.83466244,7.942899704,-99.38154602,-23.19588089
1912,0.383075953,-2.312990665,10.77502251,11.48425961,-104.9977875,-26.57018471
1913,0.059975997,-2.764871597,11.06547451,24.12748909,-117.5688095,-33.11020279
1914,0.3345837,-3.217946529,12.35646248,35.12714005,-132.2915649,-35.10266113
1915,0.931548595,-3.380081654,12.34362793,38.52571487,-147.5602722,-34.83551407
1916,1.717312932,-3.33616209,11.97551537,41.67696762,-166.0650787,-33.21539307
1917,2.184155464,-2.520065069,12.15082264,37.64688492,-178.3938599,-27.46089745
1918,3.688485622,-2.02164197,11.30709648,28.85810661,-194.3974609,-20.30258751
1919,4.940748692,-1.843644977,12.00239658,22.1272049,-198.4279175,-15.28921509
1920,6.962034702,0.751793802,10.61854839,33.248806,-208.8154755,-18.52832603
1921,7.471701622,-1.626891732,10.57715893,29.79563904,-208.6851196,-21.91354561
1922,7.273923397,-4.477162838,9.757277489,16.2676239,-164.4004669,-30.66215706
1923,7.879093647,-2.693701744,10.4052906,17.37475014,-169.0257263,-49.55031967
1924,8.184101105,-1.183722377,11.33911133,11.96193218,-184.2006378,-49.25258255
1925,7.793645859,-1.835521698,11.80158234,-1.652733088,-199.1404724,-39.53025055
1926,8.360774994,-2.241415977,10.90391064,9.227140427,-209.3522644,-26.70266151
1927,10.21267128,-2.3177917,9.393175125,16.12455368,-187.0455475,-18.01273537
1928,11.50320911,-2.146190882,9.126754761,-3.218815088,-138.0853424,-20.41237831
1929,10.70644855,-0.904325724,7.690350056,-12.84739971,-82.16157532,-17.09436417
1930,9.43530941,-1.31082356,7.079546928,-7.210167885,-38.68558884,-8.162185669
1931,8.614997864,-2.363540173,6.403390408,-0.083932899,-16.44723511,-4.213485241
1932,7.851083279,-1.57368207,5.006306171,9.100300789,-16.3732605,-3.162673235
1933,9.482789993,-1.559081197,3.938198328,10.25374699,2.803522348,-4.90229845
1934,8.789617538,-0.229774237,2.853224277,15.40079308,24.40623283,-6.194527626
1935,9.283824921,0.425058335,2.385939121,18.01596069,37.12792969,0.362556338
1936,9.12003231,0.39131543,0.610493481,10.37024689,61.97720718,7.565424919
1937,9.163005829,-1.213922381,4.866139412,-121.5409241,112.8294067,17.20782661
1938,1.285745502,2.076824188,-1.95874238,-115.4335022,115.4084473,37.52721786
1939,-0.302326947,0.675692081,-1.750923634,-25.42527008,93.39141846,25.80029488
1940,3.711460114,-0.724065125,0.731514812,-46.62233353,102.887146,20.46103287
1941,1.264426589,-1.662063599,3.142014503,-20.43710709,104.3918381,26.53885651
1942,1.230307579,-1.054642081,5.275221825,-27.84599495,107.8278809,19.15852737
1943,2.453452826,0.415094525,6.339085102,-34.93769073,104.1455002,20.60136032
1944,0.202134177,-0.150040284,7.852517128,-23.75606155,70.36888885,25.11086845
1945,-1.747820377,-0.389879137,6.720479965,4.314999104,40.35668945,24.04482079
1946,-1.176617265,-1.26409924,6.069684982,13.85502625,14.15076447,18.50287247
1947,0.87036562,-3.799723387,6.625432491,6.214727879,0.660238266,13.38537979
1948,2.672776461,-4.80038929,8.011350632,5.490754604,-1.050056696,4.714382172
1949,3.164331675,-2.241375446,9.796956062,8.523827553,-8.221411705,1.09684515
1950,2.631561518,-0.036963992,10.00864792,8.313359261,-25.76233482,-0.392054647
1951,2.827725172,-0.339988977,9.733332634,8.139044762,-47.341259,-0.238891557
1952,4.572856426,-1.730249047,9.367872238,9.354348183,-60.16588593,-4.784091949
1953,6.011868,-3.282082796,9.780788422,8.103546143,-59.02445221,-11.12829876
1954,6.767665863,-4.711572647,10.4561367,9.623806953,-47.2717247,-11.53691864
1955,8.164987564,-3.810271502,10.21577168,19.78643227,-40.02470398,-6.477806091
1956,7.452618122,-2.329705238,10.18617153,25.77845955,-37.86823654,1.650718808
1957,6.982750893,-2.182453632,9.974493027,25.18201065,-37.84123993,8.457716942
1958,7.859657764,-2.354027271,10.11844635,20.36365891,-29.48188019,9.163095474
1959,6.919737816,-1.850169778,8.851669312,25.66716385,1.06529212,1.434231162
1960,7.886993885,-2.79468298,12.68769169,6.14307642,3.769456387,-12.26732731
1961,7.342837334,-1.938117504,10.9848175,23.68389702,17.23013496,-18.15517616
1962,7.712972641,-1.500987768,10.55686569,25.90032959,27.98873711,-12.34753036
1963,8.843364716,-2.046511412,9.808917999,16.5350647,34.15167236,-7.46778059
1964,8.820088387,-3.120439529,9.721952438,20.01586151,35.81760406,-1.435049653
1965,7.437196255,-2.802508831,10.94665527,18.1453495,63.62149048,4.715928078
1966,8.868450165,-1.268762708,11.06719875,6.418133259,76.00122833,13.33454037
1967,9.488632202,-1.780210495,10.27019787,-3.641566992,105.2435837,16.11128044
1968,9.364866257,-2.387315273,9.087457657,-15.93662071,132.9024963,12.15143204
1969,9.507579803,-1.341428757,7.472187519,-11.45887756,149.8590088,13.99895763
1970,9.016312599,-0.71549648,6.067859173,9.591086388,147.5393066,18.90272141
1971,7.398856163,-0.509992242,4.218501091,14.53657436,141.9032745,16.1609211
1972,7.107161522,0.118186243,4.021149158,21.75737762,140.5275269,17.00830078
1973,6.686934471,-0.698488593,4.548746109,5.216758728,134.4950867,22.16748428
1974,4.903610229,0.177888915,3.631646395,15.30003357,147.3056183,28.71949768
1975,3.020037174,-0.138840958,4.640384197,19.13559914,160.1682892,30.12740898
1976,1.503381371,-0.767545164,5.027293682,-0.130677208,169.9560547,39.81620026
1977,-1.431071281,-1.923750877,6.20246315,-30.48526192,184.8127899,47.16952515
1978,-2.646748543,-2.30749774,7.271418571,-54.53282166,205.7600403,41.46746826
1979,-2.325451851,-1.598629951,8.980256081,-61.36899185,192.8787384,36.3300705
1980,-2.661112309,-1.505638003,10.45891762,-62.98563385,160.3088226,40.40664291
1981,-3.729032516,-2.244572401,10.74097347,-60.37459564,139.3925781,33.3004303
1982,-2.224498272,-3.010240555,12.42224216,-53.90584946,112.5422134,23.34142303
1983,-3.079726219,-2.64645052,10.51353359,-36.34151459,78.42242432,21.4131031
1984,-3.525202751,-1.958286881,10.16197014,-11.09411049,46.54990387,15.2992487
1985,-2.953852177,-0.793030977,10.40916157,-12.85907173,14.60873508,12.18108368
1986,-3.01909256,-1.699707747,10.86117172,-28.45737839,-14.32938576,7.559545994
1987,-2.233914137,-2.661575079,10.15900803,-23.86332703,-34.07318497,2.580296278
1988,-1.947580695,-3.155005217,10.29998302,-11.56618404,-41.64804077,-6.853172779
1989,-2.006447077,-2.954826355,10.1618576,-4.354599476,-50.20671844,-16.98373222
1990,-1.53646028,-2.679451227,10.83609772,-0.787899017,-65.89849854,-25.51137924
1991,-1.29155004,-2.414028406,11.16190243,-2.762663126,-90.99778748,-31.66633606
1992,-1.348499894,-2.444573164,11.20349503,-5.535429955,-116.6099091,-38.86554337
1993,-1.244749665,-3.238983393,11.54818439,3.815513134,-138.1772156,-39.11512756
1994,-0.034685135,-4.056359291,12.37358475,29.79842567,-144.3122101,-42.96139145
1995,0.538284659,-4.878272533,12.94962883,53.95960999,-159.5139465,-47.61548615
1996,0.725672603,-4.753952026,11.95161819,63.842556,-208.2317352,-52.84937668
1997,3.285775423,-3.729302645,12.80942726,65.56298828,-245.9297638,-42.57663345
1998,4.336497307,-1.387069345,11.64627647,65.67019653,-247.796814,-34.34848404
1999,5.362113953,0.477525711,10.9088726,65.98934174,-252.2088318,-25.42688179
2000,7.266393661,-1.888208628,10.92317581,71.09461975,-256.5432739,-13.27828503
2001,8.275613785,-2.7291677,9.542123795,53.92314529,-236.4100342,-12.61955452
2002,8.641849518,-0.107806645,9.907954216,21.53702545,-212.7563171,-24.25352478
2003,8.021120071,-1.422686577,11.38728619,3.013554811,-208.8629456,-26.31766129
2004,8.450127602,-2.396866083,11.75623226,-1.264325976,-215.5011749,-31.21066666
2005,9.256532669,-2.367233753,10.74961758,2.675204515,-205.8017731,-37.63165665
2006,9.726366043,-1.545872092,9.352172852,10.71957016,-187.4343567,-35.52576065
2007,9.600074768,-0.763035893,7.48492384,29.23474693,-172.6218414,-22.34880257
2008,10.09878063,-1.915051699,6.838840961,21.31386375,-134.2188263,-14.44520473
2009,10.62017441,-1.409998178,5.813865185,6.848231316,-78.8924942,-16.09619904
2010,11.50368023,-1.552972436,5.65721035,10.31920624,-24.84921837,-16.28703117
2011,10.7987318,-0.215411678,4.942416668,-4.171334743,21.1015892,-19.45793533
2012,11.23984909,-0.018910833,4.232762814,-6.104616642,29.16371536,-12.1380167
2013,10.41779709,-0.10007298,2.328561544,9.68913269,22.23388672,-5.300405502
2014,9.843894958,-0.302610934,0.067075446,7.993882656,28.21813965,-4.011882782
2015,10.25006104,0.655806899,-2.080844641,-1.013136625,85.4980545,7.489814758
2016,6.794654846,1.452464461,1.17790544,-43.35650635,126.8274994,13.79451942
2017,3.47652626,0.28468743,4.08927393,-96.14259338,111.0064468,13.27504826
2018,4.622819424,0.197446704,-0.518060982,-104.9546585,111.4936752,41.04242325
2019,-0.683818638,-0.349968642,-3.062693357,-30.07312202,116.3199692,46.78587723
2020,-1.429016113,-1.951244116,4.151303291,-27.29343605,109.5506668,27.58868217
2021,3.644217014,-0.521275878,4.928436279,-47.67808914,111.7933502,26.31917
2022,1.914233804,1.309539318,5.511981964,-33.50238419,108.0291748,26.15152168
2023,-0.88370043,0.693323255,6.731301308,-46.27968597,87.83021545,19.96468735
2024,0.967805684,-0.257239431,6.952051163,-36.97912598,68.16077423,26.19443703
2025,-0.272948056,-1.656858325,5.293946266,-10.6628437,29.66672516,44.44306564
2026,-2.41476655,-3.117350578,5.351179123,-0.977783442,18.1040287,37.0578804
2027,-0.211033747,-4.38298893,6.326129913,9.17617321,9.263525009,22.02412033
2028,2.779020548,-3.57259059,8.049716949,5.074690819,-2.169742584,9.894478798
2029,2.613903761,-1.468154669,9.459125519,-3.921588898,-11.821805,8.315033913
2030,2.212439537,-0.808566272,9.458227158,-2.445072412,-28.11127472,6.784125805
2031,2.951267004,-1.752074957,9.478865623,1.520822644,-45.31928635,-0.577404082
2032,5.426116467,-2.052182198,10.05562782,3.345789433,-54.05652237,-6.479593277
2033,6.70971632,-3.438886881,10.19437408,5.470934391,-52.8307724,-5.648989201
2034,7.249328136,-3.441374779,10.0201149,15.09466171,-48.10214233,-3.426708937
2035,7.43884182,-2.779963255,9.907142639,26.27075005,-43.41444016,-4.794440269
2036,8.264554977,-2.380420923,9.783172607,29.76659584,-38.81483078,-7.708797455
2037,8.477437973,-2.276797295,10.25962448,33.64270782,-28.56303978,-2.030473232
2038,7.707884789,-2.142169714,10.21510983,42.92684555,-19.68936539,3.691696405
2039,7.773674488,-2.092251539,10.2124052,49.12381744,-10.1839056,-2.358464003
2040,8.66696167,-3.235464573,10.95153332,55.15731812,6.981619835,-9.192270279
2041,6.797225475,-3.441706657,11.41039658,41.09746933,27.56860161,-21.13587761
2042,9.225579262,-2.32847333,11.45234871,19.20380592,34.65479279,-22.7009964
2043,9.323450089,-1.277272344,10.52944088,24.53124046,59.17211533,-14.97607803
2044,7.966611862,-1.147880554,10.0147562,44.27957153,82.17087555,-11.85552788
2045,6.915734291,-1.274086475,9.30090332,46.601017,93.27230072,-5.683868408
2046,7.907171249,-0.961614072,8.714627266,44.03707886,114.0182266,5.285158157
2047,8.433326721,-0.26164946,8.962283134,42.18905258,137.3446045,13.84631443
2048,8.510426521,-1.093001485,9.14367485,16.25883484,160.9997711,20.84564209
2049,8.856206894,-1.258297443,8.164542198,-5.807582378,179.3166809,24.48495293
2050,8.677348137,-0.866788387,6.953111649,-6.343643188,181.4398041,21.42397881
2051,7.271597385,0.075642243,5.343310833,5.53965807,177.333786,21.3253479
2052,6.176530838,-0.239572778,5.728421211,9.335654259,170.4005737,19.78500557
2053,5.178504467,-0.210325062,6.60871172,-0.835646689,179.5538635,22.83183098
2054,2.289936543,-0.812261522,7.298713684,-16.13352013,187.6649933,19.629282
2055,-0.050341934,-1.124477625,7.776723862,-17.53876495,190.9712677,20.3253994
2056,-1.529774785,-1.245630383,7.709372997,-16.25512123,183.5648193,28.11914063
2057,-1.930847168,-2.40912509,8.618000031,-34.35236359,188.7554932,30.53232956
2058,-1.915841341,-3.218878508,10.7141428,-94.40574646,188.1945038,27.14793015
2059,-1.818016291,-1.960583091,12.22990608,-103.8481674,168.5227661,36.40076447
2060,-3.632975101,-1.370645165,10.46764374,-94.28791809,134.9993896,36.68450546
2061,-4.066746712,-3.36761713,10.15867233,-62.78443909,102.8896332,29.57990074
2062,-3.679687977,-3.825627565,9.454332352,-35.79595566,72.45397186,18.26522255
2063,-4.041500568,-2.635197639,8.947798729,-13.54250908,52.44978333,2.039771557
2064,-4.020409107,-0.609813988,7.798569202,3.618275642,8.959345818,-6.619720459
2065,-4.012201786,-0.287951827,8.475355148,3.756439686,-27.32544708,-8.183934212
2066,-3.62477684,-1.58447206,8.620880127,-2.288222075,-58.22258759,-11.63415623
2067,-3.110867739,-3.010261774,9.572902679,-13.83005524,-85.98595428,-23.43561745
2068,-2.734235287,-3.534129143,9.53528595,-5.078006268,-115.2934189,-37.13785553
2069,-1.99744916,-2.46155858,9.705129623,11.16094494,-144.7174835,-48.56075668
2070,-0.592664957,-3.189284325,10.31203842,13.21681118,-166.1501007,-49.4289856
2071,0.80415976,-3.062668324,10.17603016,27.32012749,-186.0050354,-42.41805267
2072,2.264172554,-0.53427875,10.46053123,26.35079384,-199.3531036,-42.95053482
2073,3.534332275,-1.008424759,11.33585548,7.410739899,-204.7156067,-46.19499207
2074,5.22078228,-2.341333628,12.00864124,11.65967941,-211.2145691,-43.96802902
2075,7.654729843,-3.983728886,11.87982941,40.8821106,-203.7441559,-45.72693253
2076,8.574346542,-4.109116077,12.42229748,62.46271515,-186.2857819,-43.27220917
2077,7.42043972,-4.010188103,12.25039959,44.92625809,-190.0735016,-36.27281189
2078,6.945725441,-2.598869562,12.43044662,39.17752838,-198.3450165,-29.47835541
2079,7.354672909,-2.583644629,12.23262787,19.42232895,-201.233963,-19.45764732
2080,8.806357384,-3.011026621,11.73770332,15.73037815,-187.9579926,-21.00664139
2081,9.219211578,-2.321492434,11.60268784,6.510568142,-157.0381165,-25.21452332
2082,9.252779961,-1.010844946,10.18270588,9.45395565,-124.4358597,-19.78337669
2083,8.813756943,-0.106014811,9.139063835,24.39257622,-84.10070801,-5.809258461
2084,8.161174774,-0.613305569,9.169297218,12.41878796,-40.56440735,-1.495458126
2085,8.337808609,-1.274298191,7.269657612,11.93128967,-24.28829002,3.191484928
2086,8.419290543,-0.855381429,5.218985081,8.784532547,-32.67799377,6.374355793
2087,8.59400177,-0.65660125,3.403416395,8.702336311,-35.59983444,9.129083633
2088,9.242801666,-0.556871235,3.385302305,0.156231225,-17.09188461,6.282104015
2089,8.387173653,-0.321406454,5.153738022,-56.72078705,29.07386208,0.830932677
2090,4.67165041,0.208723232,6.477907181,-132.7273407,64.79142761,10.19569874
2091,0.580958009,0.655369937,2.866294384,-102.8699112,73.7324295,8.475037575
2092,-0.0054672,-1.708707333,2.152053118,-58.39247513,34.19218445,6.471339226
2093,2.13436985,-3.20643425,4.343487263,-30.95222855,16.33060265,19.89917564
2094,3.002696037,-2.604508638,4.626370907,-23.76151657,29.20933914,16.49880791
2095,1.49024117,-1.97471559,5.731417656,-10.72772408,20.27429581,10.18293381
2096,0.292060524,-1.721442103,6.756425858,-28.83481216,24.73178291,4.94271946
2097,1.182175398,-0.604328096,7.283063889,-17.57855225,24.70640564,-0.956265986
2098,2.523490906,-1.094532371,7.847485542,-21.6241169,7.241986275,7.214517117
2099,2.213849068,-2.616759777,7.801290035,-12.65989208,-11.54883766,15.28561687
2100,1.307335734,-3.590025425,8.423464775,-1.310526848,-20.3320694,3.030287743
2101,2.575716496,-2.24663949,9.220564842,-5.525873184,-20.75089645,-9.746573448
2102,4.243002415,-1.597506404,8.740038872,-4.467840672,-25.94905281,-12.43126106
2103,3.91240263,-1.834938765,8.62847805,7.529599667,-35.2349968,-7.626051426
2104,3.650901318,-2.091721773,9.161313057,6.313642502,-42.42392731,-6.511060715
2105,4.710536957,-2.763806105,9.068380356,8.18921566,-44.57090378,-8.16877079
2106,6.201582909,-3.759207726,8.828934669,9.947469711,-42.25852203,-5.27406168
2107,6.733394146,-3.373745918,8.34585762,23.10873413,-35.31555176,-2.16372323
2108,7.056564331,-2.519464731,8.304081917,27.39151001,-26.02117729,-0.492304236
2109,6.952121258,-2.593176603,8.63402462,19.23071289,-7.861431599,-2.198481798
2110,7.621044636,-2.680836678,8.99969101,15.21359253,0.542150915,-4.075202465
2111,7.572780609,-2.584671497,9.252936363,12.60863876,8.662946701,-1.209637761
2112,7.378473759,-2.723865509,9.904699326,17.65073204,11.71894932,-3.045623779
2113,7.69209528,-2.879878283,10.79210663,27.08182716,12.82417488,-9.265130997
2114,7.469966888,-2.702943087,11.3659668,28.53833771,4.60153389,-7.853645325
2115,6.761289597,-2.498762369,11.10624695,37.54954147,0.517526388,-2.78499794
2116,7.260369778,-3.026746988,10.87517548,35.54593658,5.393873692,-5.374235153
2117,7.035782814,-2.249452114,10.00323582,18.08921432,26.72656631,-3.126368046
2118,7.242149353,-0.763180792,9.096951485,11.48376179,40.1175766,0.655964494
2119,8.092833519,-0.820218623,9.963829994,12.46437931,55.57149887,6.845169067
2120,8.840965271,-1.682735324,10.91509819,-30.15365219,90.13170624,12.79195404
2121,9.581597328,-2.114460707,9.777523041,-39.83880234,112.0296555,22.20841217
2122,10.82218552,-2.70078373,8.338630676,-27.62182426,127.3855057,32.71209335
2123,11.18385029,-2.411803007,4.647422791,-22.72615623,151.3922729,38.49412155
2124,9.729159355,-0.905655026,2.482125044,-9.896139145,172.7765961,42.72832108
2125,7.327344418,-0.600333512,2.458940506,0.989918351,191.9205017,42.41689682
2126,5.895411491,-1.862898231,2.571376801,-2.915864229,200.9371796,43.73471451
2127,4.54896307,-1.692510128,2.684402227,4.228106976,203.5699921,44.60163498
2128,1.874113083,-0.947025001,2.610942364,20.1890564,216.7237244,43.40264893
2129,-1.385123849,-1.314369321,4.466502666,21.46539879,225.6930084,40.36833572
2130,-3.70632267,-1.82438159,6.351390839,10.51810741,205.1544189,37.66314697
2131,-3.403547049,-1.789980412,7.312935352,-3.077734947,183.3955841,39.85822296
2132,-3.759249687,-1.186503291,8.960410118,-19.95179558,160.0789642,41.20504379
2133,-4.282530785,-1.493770003,10.49363232,-47.7056427,138.1015778,40.09519196
2134,-4.4074893,-2.092340469,8.932734489,-54.27444077,102.5550537,39.31336975
2135,-3.874329567,-2.614362955,10.73032951,-34.56270599,87.16175842,24.92053032
2136,-3.322017193,-2.603434801,11.46982193,-28.86587524,68.35849762,14.57288837
2137,-2.302786112,-2.425152302,10.88036633,-23.56754875,37.23954391,7.128506184
2138,-2.422570944,-1.804311872,9.679341316,-16.36959076,-2.214373589,-0.510307848
2139,-3.051455498,-2.655990124,9.683158875,-17.402668,-31.60363007,-2.720734596
2140,-3.029268265,-4.199763298,10.90553761,-15.22930241,-49.9127388,-4.236009598
2141,-2.898926258,-5.176799774,11.36224461,-10.82503223,-51.31567764,-3.786234617
2142,-1.906074405,-3.898488522,11.31891632,-0.100722946,-52.8546257,-6.247998714
2143,-0.081720546,-1.858265758,11.32586002,-1.281052947,-66.86698914,-12.51325035
2144,0.089169286,-1.594404221,10.38824463,-7.461638451,-75.97505951,-15.52805614
2145,-0.555134416,-2.894067764,10.39767742,-13.69616604,-84.54072571,-14.92311192
2146,-0.476143122,-3.343948364,10.81970119,-15.11982059,-91.54930878,-20.51154137
2147,-0.195806548,-2.82303834,10.72269821,-3.404456615,-101.3564224,-26.70031929
2148,0.568106472,-3.309193373,10.99662209,15.23601913,-112.0782471,-29.49778748
2149,0.592148066,-4.709073067,10.99784851,30.6533432,-130.0567322,-27.90154076
2150,0.694268227,-4.632519245,12.12941456,44.11413956,-153.4175873,-26.03297043
2151,1.158107281,-4.57211256,12.82258987,30.08004379,-181.0597687,-34.36328888
2152,3.692449093,-6.230810642,12.40487862,25.14280319,-200.9121246,-38.5363121
2153,5.968542099,-6.233520508,11.49464512,41.81524277,-209.7116547,-30.94659424
2154,4.752723217,1.380869389,11.31235695,40.2440567,-205.1291199,-35.48054886
2155,6.79458046,1.880376816,10.06066036,36.0717659,-190.1823273,-32.58485413
2156,7.390173912,-2.937791586,9.867348671,2.923012972,-183.1555939,-28.78907776
2157,7.364649296,-4.758163929,10.77321625,8.353307724,-187.6296844,-41.76508713
2158,7.209227562,-3.174299002,12.11308479,12.14365959,-196.0794678,-50.34574509
2159,7.314919949,-2.386545658,11.99675846,11.27894306,-202.7921753,-43.91010666
2160,7.76513195,-2.387767553,10.51435661,3.200133562,-216.1014557,-30.97501373
2161,9.958812714,-2.080883026,8.606899261,11.39369869,-208.1702576,-21.6192112
2162,11.14303493,-1.918537378,8.805099487,7.015563965,-131.5644836,-25.48321342
2163,10.25057983,-2.342550755,8.694127083,22.35832214,-92.3976593,-15.34863186
2164,9.170325279,-2.157865524,8.195672989,33.50446701,-56.80082703,-4.905061722
2165,8.244570732,-1.669044614,7.174632072,33.23153687,-30.91085052,-2.528619766
2166,8.962890625,-1.519260883,5.277120113,21.82392311,-12.28883457,-6.885170937
2167,10.17837048,-1.603934407,3.943977833,24.69504166,8.088363647,-4.996602058
2168,9.665956497,-1.281574368,2.394028664,13.31415939,28.22998047,0.239306644
2169,6.511845589,-1.003683209,2.543882132,-1.885480404,45.52496338,-6.076838017
2170,8.885371208,-0.132119805,1.823502302,-1.435333133,45.13583755,-2.317581654
2171,9.482321739,-1.142489314,4.707181454,-128.3459167,102.8496094,19.1913147
2172,1.14998579,1.190619707,-1.291803598,-135.8859558,135.8940125,15.36833191
2173,-0.899818122,-0.236602053,-3.642677069,-37.96035385,101.881958,13.53158665
2174,4.63046217,-2.838296652,1.206496477,-21.48326111,115.7757263,10.04544353
2175,3.455616951,-2.253028154,2.877456665,-10.77808094,122.8897247,25.25229645
2176,0.26883778,-1.829337835,4.855733871,-25.05047035,106.4474258,13.24536037
2177,0.112614788,-0.381556332,5.101380348,-16.99924088,95.30272675,15.88976955
2178,-1.20637691,0.169184372,6.461172581,11.83400154,72.95090485,22.6513958
2179,-2.004391432,0.014669551,6.914446831,17.84185982,44.77000809,25.96058464
2180,-0.933356524,-1.625869274,6.672153473,12.27262688,18.4488945,20.68622017
2181,1.056244493,-4.109781742,7.48023653,19.4232235,12.76003838,10.03252316
2182,1.906980991,-3.128078222,8.352911949,37.77766037,9.142573357,-6.967908859
2183,2.282949686,-0.256164014,9.238433838,37.49118042,-9.56752491,-12.23873997
2184,2.038191319,-0.078295447,10.0893755,18.89089203,-38.50141144,0.404241472
2185,2.637648821,-2.146363497,9.583171844,3.612161398,-60.04144287,6.993337631
2186,4.316396713,-3.573257685,9.345050812,2.707209349,-66.89815521,3.742926598
2187,5.843459129,-4.206644058,9.484594345,15.48797512,-62.30392075,-2.947923899
2188,6.986830235,-2.879928827,9.699226379,27.26760864,-52.19305801,-4.468241215
2189,7.83951807,-1.368120909,10.12020493,23.45151329,-43.24065018,-4.54031229
2190,8.658471107,-1.924825311,10.29910278,18.22177696,-40.35265732,0.843912303
2191,7.178555965,-2.935636759,10.80772781,27.16887093,-39.13576508,-3.428928137
2192,7.18845892,-2.293078423,10.86962986,34.69632339,-28.82954216,-6.605896473
2193,6.737289429,-1.783207297,11.12963581,34.08666611,-24.21639252,-12.03348923
2194,6.895455837,-1.523539305,11.03830338,52.09141159,-17.46237183,-19.96406174
2195,6.915956497,-2.797596693,13.25309658,35.93459702,-5.092211723,-26.82987595
2196,7.638010979,-2.775782347,11.22750664,25.59181404,-3.872306108,-33.26598358
2197,8.432749748,-0.183271676,9.332137108,54.2407074,0.878801823,-23.25086594
2198,9.449971199,-0.12940985,8.694314003,53.69924164,21.03349113,0.552837253
2199,9.454645157,-2.482446432,9.633670807,-8.365690231,75.47407532,10.17678261
2200,9.180609703,-3.248192549,10.50203705,-47.20668793,122.2114258,15.17310619
2201,9.346297264,-1.993614078,12.51200581,-59.40612411,160.5389709,22.7428875
2202,9.201118469,-0.320044786,10.82849598,-41.24020004,171.2568512,18.48148537
2203,8.927597046,-0.233897746,7.453193665,-19.75735855,163.5308838,12.30477428
2204,8.650781631,-1.102254152,4.867388248,-2.502353907,162.9970093,14.9600935
2205,7.681087494,0.098579474,3.203820229,1.525105596,155.0119476,22.05050278
2206,6.813284397,0.18505016,3.859458208,1.275776148,166.6639709,30.94374466
2207,5.890700817,-0.922186196,4.673217297,-5.080996513,167.9619751,33.63362503
2208,3.646329403,-1.087069631,5.011051178,-5.412560463,166.8442535,37.6904335
2209,1.920751572,-0.109046191,5.319568157,-21.46838379,178.0597382,40.61276245
2210,-0.329709947,-0.286062002,6.061546803,-18.68621826,174.0361938,48.93855286
2211,-3.056237936,-1.881257296,8.196716309,-16.53847122,171.381134,50.1614151
2212,-3.49888134,-1.94016993,9.186290741,-33.48403549,170.3804626,39.97185135
2213,-2.259186029,-1.07066977,9.980035782,-56.00292206,160.0984497,27.30702019
2214,-1.824036956,-3.724426508,11.85557461,-87.39097595,147.168869,38.1918335
2215,-2.547396183,-5.140527725,11.0641861,-94.37343597,118.7479324,45.57016373
2216,-4.127988815,-4.55195713,9.705183029,-16.54127121,96.4637146,37.51845932
2217,-4.47449255,-2.926322222,10.58230019,2.367350101,73.1036911,28.46380043
2218,-2.550605297,-0.770307481,9.607777596,4.941841125,47.69934464,14.97870064
2219,-2.665118456,-1.344333291,9.238383293,-0.290525734,28.20582199,8.908540726
2220,-3.125231743,-1.047842622,9.152098656,-6.173380375,5.179920673,8.007218361
2221,-3.282135248,-1.268539429,9.936764717,-5.285904884,-17.29855919,6.297972202
2222,-2.602613211,-1.501604795,10.15125179,-16.24081421,-34.59239578,-1.713114142
2223,-1.988873005,-2.312003613,10.47124386,-18.21840096,-50.63239288,-12.75127316
2224,-1.623644352,-2.882388353,10.55443382,-16.97204781,-73.07370758,-18.46199417
2225,-2.063062668,-2.591821671,10.69057465,-7.994757175,-90.88829803,-25.19359779
2226,-2.438981056,-3.269439936,10.59094429,-5.516058922,-111.6513062,-30.87648582
2227,-1.636073828,-3.974807262,10.96857452,2.901785612,-128.789917,-32.63578796
2228,-0.580896556,-4.163871288,11.21138954,17.93284607,-144.5836945,-33.88591766
2229,0.339525342,-4.39490509,12.15581608,32.27551651,-155.5097961,-33.01316833
2230,0.928711832,-3.766076326,12.17729473,42.74588776,-174.8976593,-37.31129456
2231,1.813055754,-3.484058857,12.15499878,31.93141174,-198.6889801,-33.0840416
2232,2.261928082,-4.322684765,11.2402668,19.62207413,-206.9777832,-22.88080025
2233,4.228309631,-3.856848717,10.20896912,26.25113487,-214.2512665,-26.80553436
2234,6.098628044,1.274378657,10.12872314,57.39557648,-225.7609711,-28.95820999
2235,5.792156219,0.285300881,10.52494907,37.10334396,-235.0580444,-15.91089153
2236,6.235735416,-3.188220739,9.032294273,28.57021904,-216.1405945,-9.656980515
2237,7.144267559,-1.882535934,10.61307716,16.34271431,-209.7111511,-25.98810959
2238,8.231415749,-0.501275241,12.46848583,8.005482674,-215.4345245,-31.69492722
2239,8.994781494,-2.323783636,12.15812492,-12.07569027,-227.3153992,-25.88789749
2240,9.058800697,-4.275388718,10.11734009,-15.23517895,-219.8930054,-28.70685768
2241,9.994633675,-3.821456671,8.863348007,-4.900237083,-192.7153625,-39.4201355
2242,10.28033257,-1.347674251,8.072107315,17.43102837,-160.9411011,-34.21143341
2243,10.61275578,-0.701491356,6.522233963,23.92865181,-128.0738831,-15.86888981
2244,10.7270546,-2.080925941,6.372507095,-6.188754082,-74.30011749,-11.04089546
2245,10.39666653,-2.310997725,6.520436287,-9.212636948,-21.18698311,-7.610099316
2246,9.330231667,-1.615062952,6.283556461,-6.367184162,16.82006645,-6.565414429
2247,9.483967781,-1.768808961,5.246902466,-6.672920227,13.09292126,-5.19164753
2248,10.36795616,-1.332292318,2.380849838,-3.925520658,14.80362034,-1.660511136
2249,10.48594856,-1.440350056,-0.321762264,-0.262376755,15.30661774,6.585818768
2250,10.71899223,-0.635458469,-2.201188087,-20.6076107,63.34050369,5.855366707
2251,6.007818222,-0.692086935,4.028812408,-81.40414429,127.1815262,7.672293663
2252,1.362372398,1.977330923,0.671560764,-96.85319519,93.2963028,16.13801003
2253,3.217624664,1.2390939,-0.696123958,-50.07849503,70.60123444,13.96036816
2254,2.301445007,-1.546150088,1.885161996,-33.75097656,80.10560608,20.00603294
2255,0.166536167,-1.894104719,2.824679613,-13.2485857,83.50697327,12.19150257
2256,1.790446639,-1.557228088,4.765969276,-7.025206089,75.60375214,2.475946665
2257,3.339359045,-1.267597437,6.063403606,-19.87956619,70.99463654,7.302303791
2258,0.190508887,-0.827224255,6.021495342,0.379846722,53.05841827,11.30960464
2259,0.37849161,-0.275326461,6.084618568,18.23006058,46.19652176,8.777389526
2260,1.116842389,-0.674299419,7.360481262,12.61946487,31.44630051,10.83095932
2261,1.588686109,-3.353136301,7.43892622,14.35547161,19.41272354,10.38133144
