PacketCounter,Acc_X,Acc_Y,Acc_Z,Gyr_X,Gyr_Y,Gyr_Z
499,3.377692699,-0.13199541,9.105957985,-24.12534904,73.7773056,2.935015678
500,3.743150234,0.085351937,8.387825012,-20.34587479,53.57185364,0.927260935
501,3.044255018,0.372985929,9.149701118,-18.20290375,40.0915947,1.290754318
502,3.415986061,0.21725294,9.794686317,-14.4756918,31.2121315,-1.257281542
503,3.806477308,-0.06561821,9.864542961,-7.091360092,20.00256729,-1.270084381
504,5.076156616,-0.502476275,10.35694504,8.038969994,15.01599026,-0.826394498
505,5.618384838,-0.403569907,10.24631214,31.83342934,3.865258217,1.190091968
506,7.043115616,-0.285090417,9.527897835,49.92807388,-6.901494503,5.960391998
507,7.426024437,-1.671949506,9.010315895,87.50448608,-1.805782914,9.999732971
508,9.495114326,-2.266614676,9.257920265,86.42070007,-16.80510139,12.90164948
509,9.631281853,-1.257282734,8.486666679,58.27586365,-55.46474457,12.8295927
510,8.457977295,0.558596134,7.519839764,58.99373245,-59.24222183,14.90336704
511,11.13344765,2.297856808,8.169958115,61.70244217,-57.27770996,28.13093567
512,1.697324514,1.77999115,9.14810276,80.77355194,-133.1618805,13.07623672
513,0.996875048,3.668493032,9.595471382,66.19503021,-144.1715546,24.04534149
514,2.006111145,1.802530169,10.63925838,73.15218353,-209.3249207,23.34760094
515,1.044786453,1.31097734,10.73566437,71.80724335,-148.6536407,20.82279396
516,-3.90547514,-0.610348225,8.96003437,35.09848022,-139.667923,24.05610847
517,-6.873051167,1.550595164,10.68112278,15.3068552,-22.60344887,19.30697441
518,-4.434696198,2.509087324,11.19322968,29.69194984,-64.27605438,2.298722744
519,5.043657303,3.188387156,11.79314995,17.83953857,-45.64907455,11.24286556
520,4.310661316,2.582792521,12.10505104,6.799744129,-50.69478607,25.63497543
521,0.32140702,2.526764631,12.19052792,5.137164116,-59.51649857,31.83690262
522,-0.456055939,3.153730631,11.28175735,-3.542243004,-55.37883759,22.12830353
523,-0.206980079,3.357575417,10.31117535,-5.863751411,-48.95158768,17.6440506
524,1.672836065,2.796279907,9.931736946,-14.89294243,-42.36472321,14.44518471
525,2.681665182,1.664936185,11.12794113,-19.65311432,-42.12720108,18.44143677
526,1.920814991,0.804283023,11.47584629,-16.2491684,-41.7203331,21.08215523
527,2.14933157,0.407827646,10.80583,-8.308446884,-34.91134262,16.79065895
528,2.71173501,0.823089302,10.7166357,-7.049927235,-39.54372787,13.70296288
529,2.994302273,1.284127355,10.58400631,-5.414366245,-30.49268723,11.83402729
530,2.7373209,1.907878399,10.73132801,-6.210150719,-26.72566223,8.521619797
531,2.713255167,2.138683319,11.16709042,-8.238636971,-30.54632759,6.861699581
532,2.884764671,2.233124256,11.09409618,-13.77476215,-31.25546837,8.707402229
533,2.927358627,1.967263579,10.40055656,-14.87169743,-29.66488838,12.80714321
534,2.949468613,1.362475038,9.858608246,-18.28397751,-27.19862556,15.69043159
535,3.481608152,0.488256931,9.869869232,-13.73177433,-24.39713287,15.12707615
536,3.525415659,0.050596774,9.792016029,-9.604868889,-24.21796989,14.31484699
537,3.319787025,-0.136117443,9.956308365,-10.43645191,-25.16718292,14.33386612
538,3.474372864,-0.029897992,10.15882015,-12.15937996,-22.34593773,11.8873024
539,3.543632507,0.162081972,10.05298138,-13.14017963,-20.835289,9.608006477
540,3.340844631,0.429534316,10.05744648,-8.655210495,-16.75901604,7.012017727
541,3.625491142,0.843539476,9.963765144,-3.57211709,-14.18617058,6.860669613
542,3.819239616,1.085479856,9.964319229,-3.801044226,-16.53590965,8.284635544
543,3.881459475,1.174292326,9.884624481,-7.414237022,-18.90156746,10.17135334
544,3.794797182,0.861114144,9.834779739,-9.936226845,-18.84160233,13.90924644
545,3.382359743,0.24263972,9.518179893,-10.71377563,-14.47958088,16.64354515
546,3.309898615,-0.149535343,9.500477791,-7.369308949,-10.02230167,15.99531269
547,3.91144681,-0.321208,9.201188087,-5.19332552,-8.850937843,12.70226479
548,3.656624794,-0.367968589,9.41118145,-3.44063282,-8.624928474,9.986263275
549,3.915494204,-0.204721287,9.417955399,0.136586174,-11.37058449,5.82075119
550,4.034625053,0.317356765,9.602519989,4.688057423,-16.25860023,3.727810621
551,4.074224472,0.829583347,9.579314232,1.49412477,-16.16817284,4.691540241
552,3.885533333,1.06181407,9.309669495,1.415339589,-12.62576294,7.137207031
553,3.93703866,0.902588785,9.266095161,4.082033634,-11.04800701,9.081059456
554,4.068913937,0.723206937,9.213412285,6.640974998,-11.02869606,9.628007889
555,4.079536915,0.412440866,9.166954994,6.045761585,-11.31206512,11.54441738
556,4.353261471,0.152726397,8.816297531,9.881796837,-11.05199623,13.51014614
557,4.132115841,0.129005715,8.654738426,16.1400795,-12.21389771,9.619563103
558,4.020740986,0.140937835,8.442884445,20.14876366,-11.43134308,5.590040684
559,4.631956577,-0.289253265,8.218073845,24.77140236,-10.55937386,2.192113161
560,4.606110096,0.399267107,8.126261711,29.96385193,-5.552877426,1.983076096
561,4.211947918,2.160893679,8.418497086,27.63840675,9.528393745,4.763572693
562,4.471155643,2.646172047,8.194701195,7.04852581,10.80368423,9.391539574
563,4.691370487,1.763393879,8.23857975,-8.871212006,1.357532263,16.03903008
564,4.873374462,0.454838276,8.573555946,-8.674724579,-1.686649561,15.59817123
565,4.861451149,-0.051904317,8.812746048,-2.10986042,-3.438148975,15.15943241
566,4.858636856,0.172830075,9.176801682,4.120569706,-10.07681656,16.64199448
567,5.140217781,0.511696339,8.499938011,5.602682114,-20.72689629,14.87867641
568,5.525714397,0.998575926,8.093561172,2.422796965,-26.884758,16.12935448
569,5.353103638,1.088621378,8.502009392,-4.924553871,-32.92202377,19.59622002
570,5.210698128,-0.431890309,8.93981266,-21.42248726,-38.97507095,19.51297188
571,5.383975506,-1.863332391,8.942373276,-31.5284481,-49.47286224,13.71626949
572,5.832419395,-1.784486651,8.527766228,-14.73995781,-52.90171432,4.874551773
573,5.978249073,-0.247261986,7.654700279,-6.354939938,-36.76173019,-5.085824013
574,5.669169903,0.967991829,6.416717052,-34.41421127,-24.26049042,-7.04237175
575,5.488242149,1.331528664,5.593339443,-35.14128876,-8.824230194,-4.71573019
576,5.327411652,1.126556635,4.870451927,-24.06656075,1.34498322,1.301864147
577,5.239893913,0.603801608,4.753514767,-16.50444603,5.729867935,4.715271473
578,4.910749912,-0.663480103,5.368777752,-6.568957806,12.37845421,5.766697407
579,4.855166912,-0.620263934,5.89318943,-2.155757904,13.11013031,1.201345086
580,4.329933643,0.098638728,5.732169151,-0.974524796,0.347212136,-0.398226231
581,3.520768166,-0.103223413,5.675308704,5.372654915,-1.371778011,0.313288152
582,2.848045588,0.175527796,6.664306641,10.56181049,-12.26995468,-2.196457624
583,2.80416441,0.061822586,7.427128792,2.102553129,-4.064377308,-5.730278492
584,3.456283331,-0.361008883,7.105852604,-1.121708632,-4.286376476,-10.01392937
585,3.971259594,0.069773458,7.018633842,-5.296263218,-11.07910442,-10.79966927
586,3.734564066,1.404376149,5.904963017,-7.306137562,-20.00521851,-8.283916473
587,2.077595472,1.556372881,5.736149311,1.749282122,-28.83111954,-0.838741481
588,1.501927376,0.787604928,6.426245213,11.33024025,-36.41687393,4.02850771
589,2.749810934,-1.313364387,7.250965118,26.31115913,-45.17429352,3.739701033
590,2.621202469,-2.151594162,7.485806942,36.79378891,-47.22845459,7.677781582
591,2.154518604,-1.997203827,7.823308945,33.48303986,-47.09781647,8.35293293
592,1.839031935,-1.137261391,7.033252239,15.95583057,-24.53477287,1.442569137
593,2.299767494,0.449798912,7.55465889,8.712033272,-14.16606331,-0.927872121
594,3.040480614,0.614067852,7.500370979,7.418912411,-16.60452461,-2.632540226
595,4.176723003,0.809836984,7.922246456,7.357510567,-20.4636116,-6.571577549
596,3.604394436,0.29587099,8.642443657,6.057077885,-24.5105648,-5.300791264
597,3.495882511,-0.442256838,9.112123489,9.029543877,-24.82130432,-0.731564522
598,4.18381691,-0.719890237,9.138823509,11.23251534,-27.13035965,2.779824972
599,4.658115864,-0.108498216,9.261785507,12.23600483,-23.6962738,1.75916779
600,4.717707157,-0.105560586,9.677858353,16.05476379,-21.40636635,0.356062233
601,5.042977333,-0.713511944,9.862808228,14.45786762,-26.32919502,0.632424295
602,6.032853603,-0.588113189,9.381394386,13.91228771,-34.15613174,-1.551125169
603,6.864918232,-0.452062607,8.811890602,14.43759632,-33.73052597,-4.418839455
604,8.057378769,-0.215713695,8.722801208,15.29385567,-38.46188736,-9.095883369
605,8.985884666,0.131347567,8.33491993,14.40781498,-37.72350311,-11.7929287
606,9.219146729,0.84523052,8.058057785,14.47104549,-23.72151375,-5.715195656
607,10.13254738,1.186156511,8.050593376,5.081470013,-19.12148285,-0.89028579
608,9.419175148,0.95751524,7.789265633,1.440145493,-14.65679073,-3.193650007
609,6.762657642,0.294305027,8.076108932,-2.918427467,-8.962398529,-4.948797703
610,4.814265251,0.222680017,8.450986862,-5.984038353,8.469450951,-6.204358578
611,8.099184036,0.345781595,10.03030968,4.123310089,45.04874802,-8.070428848
612,11.36346245,-0.57124567,12.3868103,2.877916574,49.06104279,-20.25509644
613,11.32784843,-0.033480611,9.871119499,-2.522489786,68.74490356,-27.31418037
614,10.01409721,-0.144318998,7.618826389,-5.164062977,108.5182877,-19.49770164
615,10.56179905,-0.376543164,7.769868851,7.205339909,124.9134903,-17.59696579
616,11.69514465,0.0010817,6.457726479,13.7405901,116.6158066,-14.67065239
617,11.28934288,1.563035727,5.562175751,12.56507111,107.2112503,-13.3914156
618,12.53130245,2.516078472,3.75929904,0.365807831,101.655571,-15.87598228
619,10.69969749,2.110841274,2.631299734,-11.38252735,87.92108154,-11.0586462
620,7.180165768,1.445778489,4.235843658,-6.873631954,83.24201202,-6.961332321
621,4.853960514,1.363554835,6.344287872,-8.716763496,89.59539795,-3.741033316
622,3.79160428,0.830981553,7.587656021,-10.08442307,99.69327545,-1.929268003
623,2.542687416,0.399767369,6.406626701,3.555920601,146.5952301,-3.60513258
624,1.297442317,0.77891475,6.078568935,17.65961456,207.9801788,-2.304318905
625,-0.152721107,1.349075675,4.342605114,-0.723938644,231.3106384,5.860516071
626,-0.278342724,2.017008066,3.925700903,-27.42050362,233.0420074,12.29418945
627,-1.119848728,0.974753737,4.326422215,-44.02904892,213.133194,9.702579498
628,-1.081520557,0.125150755,4.455960274,-49.99533081,197.2844543,14.21974087
629,-0.340355963,0.183434904,5.851703644,-38.19536591,184.5627289,14.54745579
630,-1.202556133,-0.578262627,7.274932384,-32.53421021,175.8447723,13.21664524
631,-2.46124649,0.414155513,8.268988609,-28.37435722,156.4590302,12.10752392
632,-3.778214693,1.265636683,7.746404648,-19.37949562,147.6421356,7.918125629
633,-3.692503929,0.719421208,8.696704865,4.643367767,130.1667175,7.196466923
634,-3.275780916,0.001014596,7.395548344,28.3704567,107.2859039,0.654144764
635,-2.589998007,-0.291988432,6.973515511,44.83861542,78.85727692,-3.343437672
636,-2.860421181,0.446596384,7.756810665,37.66917038,56.7035675,0.936460376
637,-3.319694996,0.550993443,8.986320496,33.70388412,35.33200836,9.98003006
638,-3.45422411,0.542580366,8.839017868,25.01567268,18.12824821,14.33116245
639,-3.409751177,-0.046128072,8.158854485,18.11903954,-8.910148621,10.83444118
640,-3.190854311,-0.275188595,7.641841412,14.37468815,-27.66575241,10.38399696
641,-2.542845249,0.032021619,8.011345863,4.956530571,-40.08702087,13.61658573
642,-2.521389246,0.743880987,8.494997025,-7.204217434,-54.44140244,15.05995941
643,-2.429009199,0.514288247,8.883712769,-8.034285545,-69.98101807,12.46650887
644,-1.903220057,-0.096431337,9.516220093,-9.365463257,-82.38499451,10.89575005
645,-1.533676624,-0.317647904,9.862674713,-7.935957432,-90.72373962,8.793016434
646,-1.253407359,-0.465229511,9.916408539,-3.926590443,-99.53826904,7.098097324
647,-1.073218703,-0.530087173,10.10723114,-3.276156187,-103.9888,6.176938057
648,-0.574245572,-0.421830624,10.49009418,-10.29097366,-111.7996445,3.609777212
649,-0.211697906,0.386521161,10.56537342,-22.85286522,-113.1090088,0.799749315
650,0.200673997,0.839475393,10.72553921,-34.74053955,-114.8677292,-3.144771576
651,0.644558907,1.00999403,10.51535511,-38.07791138,-119.2046051,-5.527397156
652,0.936045885,1.153258324,10.42617893,-34.06472015,-121.9691925,-6.329730988
653,1.316784978,1.350202203,10.64968491,-24.87499619,-124.8776321,-7.095163345
654,1.532724142,1.415536523,11.39861584,-24.8783226,-124.3536911,-5.90562439
655,2.075583935,0.818668723,12.09593964,-38.9800148,-116.9374161,1.172208786
656,2.395939827,-0.466778934,11.15876484,-42.381073,-103.6704941,4.997880459
657,2.981353521,-0.605593503,11.02958298,-16.03610229,-90.04774475,10.02419376
658,3.450931311,-0.655469894,11.41869068,-1.800740957,-78.46606445,14.02474499
659,4.529526234,-1.725328565,11.10680771,-4.86074543,-77.2983551,18.92901993
660,4.865006447,-2.056751728,11.2319212,-11.36246681,-84.43590546,16.1353054
661,3.63458395,-2.151020527,12.54998875,9.55471611,-89.71598816,7.522289753
662,3.781624556,-1.8743186,13.48311329,41.5904007,-93.23882294,-6.290634155
663,5.20934391,-0.320358157,12.92318153,52.90258026,-96.17822266,-16.42676163
664,5.774711609,0.247271702,11.53288651,50.72442627,-80.05383301,-14.08849049
665,6.169617176,-0.831162155,10.94466496,48.99659729,-45.13889694,-10.83912277
666,6.501586437,-0.827863574,11.30643654,36.02394867,-17.41590691,-17.38036919
667,6.803497314,0.03871952,11.6618166,25.53830147,13.44911766,-20.99876976
668,6.5535326,0.643049359,10.57027817,10.73550224,25.06806755,-14.51939964
669,7.515748978,0.510269821,8.691257477,5.535823345,26.24892235,-10.4985733
670,8.338634491,-0.260825783,7.800624847,-1.39385283,42.68336105,-12.51660347
671,8.109116554,-0.523140848,7.698659897,-0.086533561,57.85658646,-10.11299038
672,6.619096756,0.148533076,8.334960938,2.763695002,51.99665451,-9.853429794
673,5.220571995,1.072367549,8.147450447,-5.021590233,46.68799591,-11.30426979
674,4.439585209,1.031884193,8.559912682,-14.56321144,36.99922943,-10.54472065
675,3.689680576,0.84490788,9.370162964,-27.07042122,25.07757187,-5.500187397
676,2.659267426,0.186636269,9.934555054,-37.06998825,17.29084206,-1.328026295
677,2.935334444,-0.396153331,9.607517242,-42.81503677,13.21969604,0.015732711
678,3.76893115,-1.052699447,9.031360626,-43.41404343,7.964931965,0.569841683
679,3.647548914,-0.918906927,8.859285355,-24.30127525,-0.175396129,-0.241169661
680,4.120405197,-0.744265378,9.338129997,-3.826704025,-4.415962219,3.179938555
681,4.283432961,-0.650494337,9.38907814,19.12603188,4.319939137,3.725865364
682,3.617720127,-0.526813686,8.186587334,34.082798,2.843513966,-2.43379283
683,3.784703493,-0.126100868,7.884198666,29.10176277,4.123523712,-8.17551136
684,4.089986324,-0.051502891,7.470712662,21.19638252,17.94983482,-7.651956558
685,4.516088486,-0.39216575,7.489573479,9.096059799,12.58033848,-10.51150322
686,4.655884743,-0.025504522,8.033074379,-0.547190011,-5.233214855,-11.67084217
687,4.339307308,0.377384096,8.627610207,-11.99212742,-11.06853294,-13.39743423
688,3.999372005,0.868200958,7.97427702,-20.88444138,-7.995663643,-13.32777977
689,3.778954506,0.950036645,5.998879433,-17.90162468,1.146086812,-10.97886181
690,3.873871326,0.224992543,4.553955078,3.182398558,9.972559929,-2.338491917
691,3.895305157,-0.371867806,4.152456284,12.34477615,10.51550293,3.547202587
692,3.325948954,-0.475018919,4.502080917,22.87059593,7.428896427,7.195858955
693,2.334203005,-1.055481315,5.505155563,38.07711411,-2.126057625,9.051569939
694,2.136115074,-1.277479172,6.77443409,36.30968475,-24.21870041,1.7636832
695,1.605405688,-0.87662679,7.2611022,34.57033539,-38.99048233,-4.673196793
696,1.610525489,0.697691739,7.567397118,28.4585247,-47.67746353,-6.774083138
697,1.742487311,1.514455318,6.980122566,21.23217201,-48.43465805,-2.872402906
698,1.745150805,1.660543442,6.989555836,15.92890263,-54.19595718,-0.927907228
699,1.624248743,1.609046578,6.888219833,8.675193787,-64.12007141,5.187230587
700,1.527418017,1.435765862,6.894730091,2.559997797,-75.85359192,11.3824234
701,2.004720926,1.521529317,7.242452621,3.44470787,-84.15384674,12.38624096
702,2.817755699,0.508473814,7.063441277,13.7810955,-92.57720947,10.64023781
703,3.07554245,-0.492467493,7.142972469,22.05342102,-91.94395447,6.998360157
704,3.11922574,-0.094905257,6.949071407,18.84747505,-91.33491516,2.545282602
705,2.808006287,0.812994003,7.212141037,12.64820385,-91.35619354,0.628240645
706,2.722404957,1.650002956,7.13236475,-0.470619261,-83.17794037,3.697033644
707,3.243837118,1.132765532,7.520469189,-1.984312177,-67.06626892,11.46228504
708,3.342069387,0.124611728,7.994194984,-1.387158871,-51.19562912,13.06252098
709,2.955000162,-0.265446693,8.128976822,-18.04793167,-38.28740311,11.10847569
710,3.194399834,1.122228146,8.284976006,-44.67671967,-20.62033272,4.800584793
711,2.941047907,1.845399737,8.670303345,-41.72928238,-13.80434227,5.12183857
712,3.288455486,1.116551042,9.113176346,-37.12897873,-13.62557125,5.219480991
713,3.876523972,-0.395569026,9.424118996,-33.07766724,-13.89519405,2.562286377
714,4.107141495,-0.254845083,9.160356522,-32.09725189,-17.48293877,-0.580552876
715,4.988413811,0.658306181,9.035144806,-33.6927948,-25.50132561,0.550682902
716,5.813043594,0.308862627,8.598454475,-33.27820587,-28.86146927,2.552457333
717,6.674100399,-0.658531785,8.293915749,-31.2455883,-33.61123276,2.505702496
718,7.698078632,-0.839490414,8.354669571,-25.47020149,-38.72671509,1.543054938
719,8.172981262,-0.687761247,8.300156593,-20.15405846,-39.33533478,-1.592557549
720,8.005729675,-0.608532071,8.078018188,-13.91940117,-33.31172562,-1.811402678
721,9.286646843,-0.393674046,7.919414043,-12.34566116,-23.13036346,5.412637234
722,10.16945648,0.080126166,7.120557308,-8.827168465,-19.18495369,14.49740314
723,8.810249329,0.297023982,6.835952282,-7.712441444,2.455806255,17.57965088
724,8.314739227,-0.293472648,7.982339859,-12.26241589,46.3548851,21.27963638
725,6.987886906,-2.498080254,10.9816103,-24.92030334,74.36368561,3.820274591
726,7.763650894,-3.858397245,12.05140018,-38.06863403,85.47224426,-23.45992851
727,9.193322182,-3.143069506,11.25486374,-18.93524742,79.25715637,-31.69989586
728,10.42832375,-0.91898936,10.59741783,-23.63214493,63.75267792,-30.18289948
729,12.95520782,0.977415383,8.339064598,-19.24462509,69.09044647,-17.24662971
730,13.09990025,0.741559744,5.841815948,21.0735302,83.06491852,-4.643343925
731,10.46728992,0.095318548,6.976093292,32.66241455,111.0187607,2.83499217
732,10.53815842,0.368166,7.698513985,36.50320435,124.8746414,6.616316319
733,10.52523327,0.145227388,6.097918034,24.24760818,104.9127579,6.418594837
734,8.604890823,0.051837366,6.358130932,9.08176899,83.90881348,6.267336369
735,7.334803104,0.426333845,6.607191086,2.591754913,73.65099335,10.6232338
736,7.310708046,-0.000292048,7.691376686,-98.17633057,223.9866791,30.11717033
737,0.274310082,1.456040621,2.20007515,-51.25185776,311.7783203,44.20727921
738,-1.882056832,-0.463498801,-2.69706893,50.96308517,219.0566711,33.26582718
739,-2.892531872,-0.654932141,4.935044289,33.6158371,197.0558167,29.47598648
740,-0.627387643,-0.937713504,5.565468788,-12.85470676,187.6737061,22.69544601
741,-0.215045944,-1.666345239,6.712115288,-12.86634254,172.530365,20.64202118
742,-1.190154552,-2.003873587,7.936365604,-12.58558559,165.096756,19.51856613
743,-2.122240543,-1.976531029,8.035741806,0.102171451,155.4811249,15.72120571
744,-3.058799744,-2.045894623,8.437820435,3.174351931,146.3913574,8.969319344
745,-3.623647213,-1.370162129,7.16234684,9.368309975,135.716095,1.365457416
746,-3.285002232,-0.726191342,7.923192501,-4.09882164,121.4694366,0.240752727
747,-2.434954882,-0.990752339,6.03582859,-6.480276108,89.90596008,0.386231393
748,-1.759394526,-1.075180769,6.444205761,-3.929848433,62.24259186,-1.079692364
749,-1.621683002,-1.734839559,6.909863472,8.258923531,28.50035858,1.215243101
750,-3.306233883,-1.741520882,7.238293171,11.41168785,7.582933426,3.508474588
751,-3.69494009,-1.394577026,7.713945389,10.73397446,-7.74561739,3.459912539
752,-3.284613609,-1.42906487,8.595053673,5.991618156,-18.50198555,1.473980784
753,-3.604310036,-1.522154331,8.709589958,7.525107384,-19.9702282,-2.508524418
754,-2.630071163,-0.560395777,9.234379768,15.3985405,-20.86450195,-6.186019421
755,-1.741848707,-0.323263913,9.564900398,24.50660896,-32.89417267,-8.875650406
756,-1.920655608,-0.837094903,9.591191292,30.22541428,-45.39390945,-8.874947548
757,-1.982780218,-0.527884603,9.548026085,35.17744446,-60.27374268,-8.413739204
758,-1.81412077,-0.424408436,9.928948402,35.52471924,-67.90344238,-7.776895523
759,-1.522483706,-0.51287961,10.13933849,33.65416718,-73.89493561,-7.122239113
760,-1.053624034,-0.684982657,10.4179697,29.52931595,-76.86422729,-6.826460361
761,-1.004274964,-0.572238624,10.66856861,24.51280212,-77.3846283,-6.523784161
762,-0.925890505,-0.320242226,10.6335783,22.82811356,-78.9533844,-4.898532867
763,-0.44084695,0.088454366,10.67301369,22.65787697,-80.89938354,-3.401419163
764,-0.115809396,0.355026394,10.74925518,25.69133759,-84.17941284,-3.749187469
765,0.098978102,0.337759972,10.81942272,29.23168373,-88.14645386,-0.906038284
766,0.323925644,0.330439806,10.98489285,30.3155632,-92.57660675,1.592887998
767,0.636699319,0.469605714,11.68603325,29.89606667,-93.28114319,1.810424447
768,1.199659586,0.64818728,11.62862587,29.24605751,-94.63755798,0.175702795
769,1.362450719,0.442708492,11.21589947,26.17135239,-100.1223145,-3.666461706
770,2.001957178,0.70329386,10.78159809,20.60961533,-99.92483521,-5.209468842
771,2.654581308,1.714920282,10.96399117,12.89118004,-100.7113571,-3.051620483
772,2.622710943,3.088952541,11.63735771,-6.918457985,-101.0852661,3.322337151
773,2.630997896,3.554621935,11.97977734,-28.05065346,-98.02001953,14.06783295
774,3.415142059,2.458245993,12.46703529,-24.19332314,-94.53004456,22.74253654
775,4.209171772,-0.691215217,12.67818642,-7.537487984,-83.18888855,19.96915817
776,4.759034157,-2.416680336,11.79854298,-16.31513214,-72.64726257,14.07110119
777,5.271830559,-1.152710199,10.57700825,-16.80548477,-78.64077759,9.767673492
778,6.601713657,-0.963222921,11.03369808,-15.95401764,-51.27196121,-0.755697608
779,8.103309631,-0.102681153,10.29768372,-26.42533875,-12.78419971,-8.298196793
780,6.279475212,-0.133705109,10.71689415,-5.705766678,-0.109327815,-3.708667755
781,5.107114792,-1.035107613,10.99822712,7.180812836,24.83481789,4.172325134
782,5.979135036,-0.871335387,10.49598408,11.80981731,41.67513275,4.17083168
783,6.206912041,0.187516361,9.585140228,3.987009525,44.46549225,1.843185902
784,5.448068142,0.723278821,9.588977814,-9.227980614,45.88508987,-3.276491404
785,4.730857372,0.217149407,9.653523445,-14.55449104,34.83271027,-4.226437569
786,4.254667282,-0.32264477,9.31349659,-19.40624428,27.23867226,-5.205200195
787,3.556770086,-0.642538011,9.104097366,-18.11759377,21.91189194,-7.080638885
788,3.393906593,-0.821486831,9.333983421,-16.69708252,8.067122459,-7.464640617
789,3.268047333,-1.099709153,9.790106773,-17.46185493,-6.945034504,-8.838777542
790,3.94465661,-1.005191088,9.754787445,-14.36243629,-16.21486664,-8.000639915
791,5.116724968,-0.025569335,10.19121552,-19.36927986,-15.49998569,-7.607874393
792,5.366818905,0.303842157,9.981958389,-25.58927155,-16.49324989,-6.34687376
793,4.536201954,0.292195022,9.701583862,-9.475721359,-12.25101376,-5.019556046
794,4.791372299,0.189606994,9.430535316,3.459821701,-7.111610413,-4.721151352
795,5.288569927,0.512050986,8.865797997,15.09091759,-12.66877747,-5.709195137
796,4.574300766,0.280676961,7.361148834,11.55798531,-1.394714475,-5.274528027
797,4.158610821,0.27089709,5.656085491,-10.44678211,40.81014252,1.106840611
798,3.603285789,-0.1159973,5.33229351,-43.20937347,78.7085495,6.481830597
799,2.701553822,0.126977593,5.374814034,-36.86929703,81.77237701,7.69443512
800,3.160318613,0.158885971,3.760025263,-21.35663986,58.43051529,8.926027298
801,2.759076118,-1.030016899,4.333573818,29.31001854,41.36655045,10.79351711
802,1.700761199,-1.971791029,4.972167492,55.38275528,33.19081879,11.73397636
803,1.924200416,-2.576737165,6.093838215,56.44541168,9.480405807,13.66604614
804,1.986264467,-1.965699315,7.396047592,46.76395416,-16.11413002,9.24266243
805,0.821728647,-0.599794149,7.621360779,26.01959038,-29.28692245,4.72913599
806,0.355716139,0.385480702,7.243337154,20.87021446,-39.80425644,2.619372129
807,1.030796289,0.355211556,7.777051926,9.03962326,-51.8542366,0.108797416
808,1.280504823,0.476288736,7.514469147,-16.08063698,-63.03267288,-0.455041975
809,1.309421182,0.304513633,7.061098099,-32.82385635,-72.67392731,2.324141979
810,2.278136015,0.727922976,7.219023705,-49.01031494,-87.77759552,3.801668406
811,1.238411427,0.803486943,6.650787354,-47.23077393,-102.5170135,5.36678648
812,0.921680748,0.477351874,6.070123672,-30.90224838,-105.7719498,3.518676043
813,1.977677226,-0.27619046,6.87405014,-15.38761711,-105.9501724,2.613298893
814,2.298928022,-0.492633849,7.350150108,-5.364914417,-113.7598495,1.329801559
815,2.163373232,-0.831874251,7.33141613,0.009253011,-113.8538132,-1.425527215
816,2.27371645,-0.283093512,7.321711063,5.97607708,-109.9771271,-5.134541988
817,2.661079884,-0.050949588,7.692780018,15.62584782,-102.6075974,-6.990791321
818,2.645247221,-0.63222307,8.269632339,31.0045948,-88.51364136,-9.890666008
819,2.915387154,-1.123173952,8.444061279,45.00152969,-68.79400635,-11.37957573
820,3.232243776,-0.5853948,8.165629387,55.51521301,-43.13586807,-8.231963158
821,3.611827374,0.197063714,8.337700844,49.57271957,-30.37286186,-2.503645658
822,3.66947794,0.34455049,9.056674957,41.12317657,-27.81532288,0.406637073
823,4.089153767,-0.255057275,9.553766251,22.27816772,-29.75581169,0.280915052
824,3.522703648,-0.836500406,9.189221382,9.96273613,-27.65479279,0.154067263
825,4.103998661,-0.246858418,9.49998188,-0.583035707,-22.33133316,-4.280415058
826,4.70102644,0.652952552,9.086072922,-5.888547897,-31.91425133,-2.269203901
827,5.257905006,0.783289015,8.914354324,-5.126711369,-34.94922638,3.353248596
828,6.633574486,0.102233231,8.491084099,-2.95939374,-34.75172806,4.567679882
829,7.641605377,-0.117100984,8.53012085,-0.503189385,-36.05767059,2.686112165
830,8.032384872,-0.2067855,8.710403442,3.340954781,-35.91309738,0.321114272
831,8.32699585,-0.190766469,8.421290398,6.19913435,-31.00231171,-6.347349167
832,9.132143021,-0.030792594,8.240319252,7.811666012,-21.59019661,-10.21230507
833,10.08086967,0.409289688,7.456259251,2.33919096,-15.22686672,-7.498086929
834,9.71739006,0.509195924,7.049054623,-7.993751049,-5.658666134,-0.957070053
835,8.039838791,-0.649949491,7.945882797,-11.97486496,7.15551424,14.52276325
836,6.256876469,-1.647848248,7.478273869,-10.55873966,29.38964272,14.26990223
837,5.86964941,-2.300556421,7.20896244,-9.057094574,61.53435516,-1.944440246
838,7.684259892,-1.36787343,8.206905365,-8.883122444,94.88353729,-16.40979004
839,9.010112762,-0.145648196,9.842684746,-8.780317307,106.0801163,-19.1334095
840,11.05669308,1.336175919,9.62912178,-8.342366219,98.30561066,-19.81398582
841,12.78751278,2.998993397,6.601464748,-5.568029881,82.8358078,-7.42315197
842,11.78666496,2.525405884,7.263135433,6.434645653,88.31092834,5.526842117
843,11.03396511,-0.169175357,7.689519882,4.873311996,102.8001633,5.211809158
844,11.34850311,-0.774317384,7.119377136,11.50949001,88.9392395,2.444743872
845,10.15494061,-0.476276666,6.252700329,12.40451717,64.78443146,-0.321405858
846,7.905703545,0.10752321,6.661168575,10.66205025,48.17412949,-1.314391017
847,5.843435287,0.522971272,7.540442467,6.427316189,37.79206085,4.142049789
848,4.322621822,0.485480011,7.60068655,0.601498723,40.0565567,12.76790142
849,2.915284634,0.418725282,6.776028156,5.025707722,84.36369324,16.45586586
850,1.673049212,0.205092788,6.723988056,15.31262016,149.4875031,11.9702158
851,1.388292074,0.595926523,7.020461082,29.70461273,205.2522278,-0.834268093
852,1.698873997,1.341337919,7.146770954,18.04609108,218.1257477,-9.469207764
853,1.909696817,0.328304261,6.204385281,-11.97708797,220.8960266,-14.41650581
854,1.116156936,-0.871790826,5.511728764,-20.47367477,228.290741,-17.92738914
855,0.138817146,-1.666040421,5.342887402,-27.67579842,224.4324036,-12.57033539
856,-1.23665607,-1.161920547,6.070055485,-19.38112831,206.9995117,-7.880987167
857,-2.407361746,-1.144634724,5.893013954,-8.626493454,200.3601074,-5.498751163
858,-2.502652407,-0.915778399,6.911370277,3.715552568,179.885437,-2.08588028
859,-0.83378458,-0.31536594,7.957126617,12.34913921,157.2096252,-0.188397929
860,-2.926856279,-0.242950901,8.099859238,9.221588135,131.250412,0.185492069
861,-3.985933304,-0.981796861,7.920915604,11.81146526,105.4782639,-0.500953078
862,-3.536952972,-0.361893088,7.208388805,17.90497208,77.28283691,-4.686933517
863,-3.404490948,-0.006338712,7.199894428,24.26442719,55.05084229,-3.498648882
864,-3.747593403,-0.237194896,7.995977402,24.09905434,42.41183853,1.55232811
865,-3.94453907,-0.459381014,8.144870758,17.74924469,23.96302223,7.335726738
866,-3.693893194,-0.271917254,7.720246792,21.37358093,6.522370815,10.56745815
867,-3.239025831,0.161988676,7.624812603,27.04426575,-9.221768379,9.797204971
868,-3.178936243,0.884940982,7.869907379,30.29833984,-28.5139389,7.804718018
869,-3.009570122,0.971111417,8.02401638,35.89643478,-49.68024063,3.38307929
870,-3.270832539,1.053769112,8.568468094,43.59965897,-64.06947327,3.400240898
871,-3.225705624,1.010310888,9.494300842,43.7242012,-76.03316498,6.990669727
872,-3.237299442,1.186355472,10.16702366,35.1843605,-91.42121887,7.51691103
873,-2.652024984,1.429129004,10.504879,27.67723465,-100.6315308,6.424469948
874,-2.218244791,1.471726894,10.86736298,28.97098923,-108.6746445,7.423437119
875,-1.689636588,1.332132697,10.66636944,23.69059563,-114.5634766,8.654162407
876,-1.24897635,1.490330935,10.67047787,16.1689167,-120.9885254,10.45411396
877,-0.937470078,2.094192982,10.6831007,5.452449799,-125.3901291,14.35692501
878,-0.597212553,2.303051472,10.88644505,-7.450171471,-127.1965103,19.52200699
879,0.173469275,2.23387599,10.78430939,-16.77969933,-130.1900482,23.47954941
880,0.813936353,1.653264403,10.51115131,-25.89048767,-138.6985321,25.88151741
881,1.304208755,0.943849742,10.3525486,-34.46289825,-142.8144836,23.81940651
882,1.791588664,0.23272571,10.25211334,-38.10177231,-142.9932251,18.81594276
883,2.334194422,-0.300625265,10.01242542,-34.09173584,-137.0297699,10.54811192
884,3.254718304,0.05216971,9.958338737,-24.6479454,-114.9114151,1.740986347
885,3.877773285,0.7271173,11.16491985,-13.17701435,-91.2154007,-1.015804529
886,4.132935524,1.284835577,12.03703117,-8.825754166,-86.01742554,2.87364769
887,4.00079155,1.200906873,12.33309841,-10.56211472,-86.14411163,9.259335518
888,4.223142147,0.796118081,12.22622585,-12.14010429,-79.85334015,13.90216446
889,4.63246727,0.611907303,11.43863201,-17.28297615,-67.00567627,15.73517799
890,4.984759808,-0.243234992,10.75696659,-20.54703712,-42.04943848,14.18181419
891,5.543885231,-1.515879273,10.67540169,-32.76499176,-7.415099144,6.980520725
892,5.898700237,-1.186547279,10.80311966,-39.01672363,16.18336487,1.918396711
893,6.541611671,-0.604230821,9.893267632,-35.3181839,30.68653107,1.343338728
894,7.01946497,0.033533383,9.930401802,-29.28933716,46.99832153,-3.241155863
895,5.962192535,0.464254856,10.46592045,-29.11110306,57.32528687,-5.834914684
896,5.996031761,0.140775487,10.04449368,-24.45953178,52.0503273,-6.504729271
897,6.848903179,0.098393999,9.370987892,-16.16143036,38.50809097,-2.91100359
898,6.581767559,-0.333849192,8.921264648,-13.12262726,24.92517853,2.100817442
899,5.749763966,-0.767151058,8.802390099,-7.74594593,19.86755371,2.461301088
900,4.36554575,-0.526151657,8.424515724,-11.01659966,15.69645977,-1.129418969
901,2.539979458,0.183276713,9.721711159,-19.40818405,9.370903015,-4.44624424
902,1.728654623,0.461426973,10.1350193,-27.3785038,4.764967918,-2.298374891
903,2.572369814,-0.702981114,9.362628937,-29.43863487,2.756684065,4.391074181
904,3.471439362,-1.308242083,9.263900757,-22.90013885,9.390296936,8.297925949
905,3.777528763,-1.47341454,9.642274857,-18.43621635,8.042801857,6.203321457
906,3.994270563,-0.898021162,9.753762245,-17.46224785,5.946706295,4.532422543
907,4.130413055,0.098520264,9.135697365,-16.2271862,16.62538338,4.692094803
908,4.656831264,-0.303906351,9.331877708,-12.99300861,15.23584557,3.996719837
909,4.476649284,-1.118061543,10.4119606,-18.07073021,5.609246254,3.132174969
910,3.102133274,-1.145749807,10.20092297,-34.353405,-27.32418442,3.082784653
911,2.841833115,-0.809393942,7.907727718,-31.48847771,-45.10853577,-3.340111017
912,4.583646774,-1.369201303,6.160372257,-13.75706673,-40.11893463,-5.764879704
913,4.404924393,-1.522670388,4.791669846,-6.090947628,-11.70327187,-8.672992706
914,4.269370079,-0.845712662,4.505500793,-10.3313427,13.48314857,-9.010904312
915,4.604323864,-0.515262187,5.315246105,-10.60894871,16.1156044,-8.028311729
916,3.903492451,-0.872681558,6.156565666,2.486400127,15.94839668,-2.406840563
917,3.336568594,-1.542999387,6.156967163,22.56974411,19.76940918,0.948127389
918,2.868124247,-2.129432917,5.874467373,12.31187439,7.019018173,-2.293491125
919,2.19051218,-1.442278862,6.389387131,-12.15331268,-14.88818836,-11.71972656
920,1.626853466,-0.391083837,6.954696655,-10.13668633,-29.60325623,-7.574920654
921,1.515878677,-0.730112374,7.072377682,2.794891834,-38.73511887,-1.714920163
922,1.604856968,-1.185493469,7.284880638,10.61058331,-48.52217102,-0.41378963
923,1.185352325,-1.093552947,7.304700851,15.95713425,-60.80900574,1.657171249
924,1.012808442,-0.724404514,6.810479164,15.98990345,-69.2984314,1.813712358
925,1.874911308,-1.126446009,6.821306705,18.51307297,-77.33148193,5.813270569
926,2.2955966,-0.967099547,7.03324461,11.87862968,-88.94829559,3.97779727
927,2.460490465,-0.759875178,6.982274532,15.99701023,-94.28356171,-0.08364097
928,2.691602945,-0.771722674,7.150684834,20.16885185,-96.2071228,-1.335530162
929,2.795825481,-0.197104663,7.33430481,15.77599907,-93.83894348,-0.457790405
930,2.576846361,0.530764878,7.729079723,10.30862617,-92.41845703,1.309751749
931,2.601040363,0.29536745,7.588354588,14.34112644,-90.69342804,0.384976774
932,2.590218782,-0.68105787,7.740552902,25.63051987,-91.17515564,-2.660705805
933,2.551037312,-1.804535866,8.220235825,33.06965256,-87.20780182,-3.596799374
934,2.753752947,-2.140281439,8.566898346,33.5673027,-81.0029068,-5.238745689
935,3.06419301,-1.14800632,8.3355093,31.9372139,-70.35389709,-6.109271526
936,3.466320753,-0.366023034,8.624915123,29.85256386,-62.70057678,-5.301355839
937,3.788549423,-0.163719371,9.112526894,12.59367466,-53.22748947,-5.199382305
938,3.070649624,0.098154657,9.351812363,4.959834576,-41.19342804,-7.433698177
939,4.826533794,0.050258368,8.995913506,-2.809482336,-35.00976944,-4.759309292
940,5.087476254,-0.22903432,9.026646614,-0.848143041,-37.12600708,-1.54707849
941,5.263815403,-0.594678283,8.682384491,-2.665231466,-36.08179855,-0.80370456
942,5.776567936,-0.460239768,7.915388584,-4.543954372,-33.15814972,-0.795520723
943,6.898497105,-0.604006648,7.655602455,-4.732964993,-33.96076202,-1.82190299
944,7.376532078,-0.452052921,7.942439079,-3.987286568,-34.29493332,-2.686783314
945,7.713825226,-0.603559732,8.242708206,2.087268591,-29.32645226,-4.558140278
946,7.966575623,-0.733949184,7.91724968,12.78331661,-19.08777237,-4.573963165
947,9.358570099,-0.196081042,8.080523491,17.76389313,-13.23607826,-1.591345549
948,10.52527905,0.488645971,7.608529091,19.7978878,-15.3522501,-0.284032702
949,9.593069077,0.779061735,6.973843098,17.45893097,-13.48220253,3.470084906
950,8.501281738,0.135161415,6.587462425,10.07365322,-2.085566521,8.266125679
951,7.44235754,-0.971769512,7.14609623,13.02504158,25.53065109,10.20269299
952,6.671196461,-2.485759258,8.791571617,37.39089966,70.56266785,-1.648303866
953,10.32744312,-1.942792773,10.79564095,33.45369339,76.2230835,-6.674116611
954,12.74694157,-1.94167316,10.01131535,27.07753944,64.56827545,-16.27893257
955,10.71464729,-0.216123581,9.946164131,3.264230251,50.89242554,-28.40797424
956,11.77912521,1.751538634,7.83958149,-23.61535454,65.54000854,-22.35191917
957,13.79945755,2.125377417,4.51025629,-21.54797554,82.05619049,-13.03187656
958,11.51957989,1.072792172,5.872459412,-20.59640503,99.87930298,-7.376344681
959,11.98700905,0.275400788,6.07394886,-8.794401169,99.21069336,4.661654949
960,12.16901016,-0.088013388,4.654300213,1.432155252,88.62477875,11.83564949
961,9.972289085,0.31707111,4.050532341,-0.811530769,78.98471832,7.858425617
962,8.363314629,1.567177176,5.2101264,-16.44227219,75.23152924,13.22955704
963,7.664885521,1.804096341,6.998266697,-37.94945526,65.39251709,27.49300003
964,5.186160088,1.099218369,8.047940254,-48.01401901,52.56202698,36.99044418
965,2.83793664,0.47644639,6.71033144,-37.37270737,87.82693481,40.86768723
966,0.972426832,-0.400350869,5.239200115,-18.51983452,170.8671265,40.37821579
967,1.067973733,-1.260586858,4.395376205,-21.38811493,215.8451233,39.08111191
968,1.769914269,-0.907130003,3.266658783,-32.14408112,240.6479492,43.28669739
969,1.175300956,-0.151589617,3.596066713,-51.14742279,233.5413055,41.39257431
970,-0.225848585,-0.972176552,4.271020412,-59.25266266,228.431015,43.79020691
971,-0.627340734,-2.684080839,6.974667072,-27.4385891,216.1236877,38.95499039
972,-1.752930045,-2.236600876,6.972935677,15.20714188,208.723877,34.90006256
973,-1.719149709,-1.367323637,6.481244564,38.31330872,186.4701385,34.4741478
974,-2.818111897,-1.008679986,6.727417469,27.59941483,168.0808868,32.88546371
975,-4.395969391,-0.761030078,6.952347755,21.18137741,148.4720001,30.16089249
976,-3.547693014,-1.449287176,7.765984535,18.30676079,119.4242706,23.13601112
977,-4.032185078,-1.78892827,7.625310898,19.8235321,97.14302826,13.8363781
978,-4.241868496,-1.668326616,7.842890263,28.35992622,74.71033478,6.179503918
979,-3.659640551,-1.476644039,8.149115562,37.74246597,50.95571899,5.277526855
980,-3.69196105,-0.859469891,8.109022141,47.08673477,29.64538193,3.563508034
981,-3.256222725,-0.918658972,8.032923698,56.49569702,9.913799286,3.703607321
982,-3.363396883,-0.684519291,8.207017899,64.17951965,-10.9446497,3.440509319
983,-2.971408844,-0.553520203,8.655143738,61.55012131,-31.82956696,0.969732344
984,-2.894596577,-0.196027339,9.281770706,48.02820206,-45.75429535,-2.288338423
985,-3.082648277,0.185122445,9.719013214,34.17274475,-60.93226242,-3.385519743
986,-2.576410055,0.946801007,9.997877121,24.32592773,-76.83414459,-3.345184326
987,-2.246179819,1.076430082,10.18778706,20.98796082,-92.40884399,-1.074512362
988,-2.258825302,0.73199141,10.55834866,21.25140953,-107.0976639,1.008856297
989,-1.758791924,0.370242625,10.69082355,19.58622932,-118.6242676,2.207844019
990,-1.299727917,-0.074248239,10.84583569,11.62900734,-128.4932404,3.218891859
991,-0.534092486,-0.335556418,11.04793453,1.732606888,-131.7930603,2.726056337
992,0.577280939,-0.337878644,10.96181011,-1.624499202,-134.4596863,0.904768586
993,0.938477993,-0.218115479,10.83437538,2.635703325,-137.5433197,-0.67295444
994,1.174736977,-0.019150428,11.13302898,5.084331036,-135.9698639,-4.568924904
995,1.541666508,0.155673727,10.96168041,9.104132652,-136.9368591,-6.948431492
996,1.864841342,0.425798416,10.80112362,12.82169247,-135.5330048,-6.600389957
997,2.197809696,0.754325032,10.97345924,17.99348068,-135.1162109,-4.501022816
998,3.382396936,0.993583918,11.21107769,18.0375061,-125.7494507,-1.319039464
999,4.105663776,1.083060384,12.06156635,14.8729248,-107.9409943,4.263137341
1000,4.249091625,0.40086928,12.5297699,18.43478584,-100.2701797,6.258276939
1001,5.09451437,-0.22734268,12.62540722,9.437499046,-88.35435486,6.178973198
1002,5.522280693,-0.162943751,10.8964653,-2.878611326,-49.93611145,5.754373074
1003,5.785168171,-1.41686821,9.790577888,-2.399975538,-12.3625021,6.86133194
1004,6.12307024,-1.438399553,10.0270834,10.24281025,4.250166416,-1.16240716
1005,7.404633045,-0.465410233,11.37086773,12.41647911,31.38383484,-5.475453854
1006,7.278497219,0.64646548,11.64252949,10.25998211,49.29292297,-3.89301157
1007,6.196927071,1.437191248,11.19426155,14.36625957,45.69491959,2.07433176
1008,5.906081676,1.499252319,10.70120907,4.916669369,36.9863472,2.509115458
1009,5.968902588,1.32296741,10.06989956,-13.29297447,23.2524929,-4.011677265
1010,5.791240692,0.988856196,9.111540794,-25.64460182,11.70235634,-8.734470367
1011,5.651555061,0.635006249,8.495818138,-22.19273376,0.176747188,-7.817204475
1012,4.918125153,0.101669893,8.608582497,-18.10794258,-13.00108242,-5.574819565
1013,4.065943241,-0.629627585,9.43770504,-13.42485523,-31.90268326,-9.255561829
1014,4.338157177,-0.710771263,9.431217194,9.090893745,-53.33678436,-10.01189232
1015,4.484873295,0.170996368,8.449928284,46.90691757,-47.29955292,-3.79154563
1016,4.466318607,2.045737505,7.42174387,64.02197266,-17.64733505,-1.348849773
1017,3.360831261,1.361153007,7.155166149,3.337264538,-0.975203633,-0.955930114
1018,2.172684908,-0.202277601,6.931404591,-37.62657928,20.87099648,0.655977488
1019,3.351521015,-0.548667014,7.335269451,-11.65088749,15.07512379,-6.978331089
1020,4.409797668,-0.568378627,6.554023743,-6.990126133,12.8249836,-14.74435902
1021,4.282427311,-0.651287496,6.949862003,27.95358849,23.09089851,-22.1690197
1022,4.005542755,-0.124035016,7.040289402,62.77336502,17.23655128,-21.97708893
1023,3.148050547,0.274615824,6.396714687,98.21674347,14.61796761,-18.11242485
1024,2.512425661,0.207185104,5.837470531,96.0484314,6.178828239,-14.80016422
1025,2.335443258,0.650791943,6.726809502,81.66965485,-10.67920017,-17.79434013
1026,2.496563673,1.212115526,7.783038139,65.06892395,-26.53369522,-20.49075127
1027,1.980202913,1.673546672,8.177305222,47.9858551,-40.84180832,-20.3205452
1028,2.034573555,2.998586178,7.568470001,22.15009689,-51.68669128,-20.45357323
1029,2.147716522,2.755881786,7.654663086,10.60135555,-62.94422531,-17.32783318
1030,2.634068251,1.773769736,8.083402634,-1.230778098,-72.8615799,-14.54199505
1031,2.186591148,2.261245966,8.522036552,-10.21801949,-86.18852234,-17.19470024
1032,1.961636901,2.002258539,7.770755291,-27.03695869,-89.95859528,-13.71823978
1033,2.562876701,1.612529635,6.683039665,-36.99913406,-86.46687317,-13.50169086
1034,3.515907288,1.770112991,6.031983852,-35.84576797,-89.71414948,-20.23882484
1035,3.393686771,1.553524733,6.238052368,-32.89107132,-95.11472321,-20.18254471
1036,3.00884819,0.913696349,6.950734138,-30.42546654,-93.96612549,-16.05365562
1037,2.716974258,0.08275982,7.075514793,-32.17840576,-85.91853333,-9.933375359
1038,2.700473309,0.056261018,7.13179493,-36.20170975,-77.38148499,-7.050539494
1039,2.899070263,0.304594129,7.100906849,-41.85314941,-72.65988922,-1.930989265
1040,2.834018946,-0.13472867,6.767192364,-42.78063965,-70.6913147,3.163852692
1041,2.767390013,-0.652950108,6.64993,-26.47216606,-60.22698975,6.274265766
1042,2.947949171,-0.674738169,6.831728935,-16.21763229,-47.5284996,2.936285019
1043,3.361757755,-0.755859017,7.590824604,-14.3701582,-42.5664444,-1.971116185
1044,3.424221992,0.85180527,8.055592537,-25.75525856,-40.18884277,-9.565820694
1045,3.687407017,1.011311531,8.582519531,-21.29850197,-38.5381546,-14.52563381
1046,4.144795895,0.247168407,8.490123749,-11.83090782,-39.79740524,-15.91575336
1047,4.265746117,0.230841532,8.2125597,-1.276991963,-35.06263733,-16.25168991
1048,5.066436768,2.072051764,8.196777344,3.432213545,-32.74110413,-15.99650002
1049,5.869582653,3.537168741,7.82993269,1.289955258,-27.10619354,-9.105790138
1050,7.028675079,4.016832829,7.613310337,-9.894576073,-21.41028404,-1.702748179
1051,7.108998775,2.941230059,7.738987446,-22.09437752,-15.1273737,0.76749289
1052,6.970844269,1.772685409,7.866663456,-33.81871033,-10.97821426,-2.874397755
1053,7.462141037,1.255031943,7.905240059,-38.57794952,-8.54357338,-6.561434269
1054,8.232516289,1.526606441,7.772547722,-38.39343643,-7.805027008,-7.40248394
1055,9.212035179,2.338835478,7.804718018,-40.83543396,-6.711501598,-2.395966768
1056,10.08666039,2.949189425,7.417947769,-49.43080139,-4.55600214,9.212875366
1057,9.872988701,1.649388313,7.018949986,-59.69231415,6.742172241,21.35079002
1058,9.435710907,0.756855309,7.472961903,-72.38182068,32.13640594,31.11807632
1059,9.123576164,-2.476711273,10.02536392,-89.7776413,54.94133759,23.41899872
1060,7.272659302,-5.154578209,12.06795692,-64.18782043,74.46492004,-9.164307594
1061,11.20644569,-3.726697206,9.04489994,-19.81142807,88.88899231,-19.41356087
1062,12.65760231,0.839834988,7.108174324,1.231966853,55.0186882,-22.76253128
1063,10.88638592,3.488122702,6.36438036,-25.88920784,54.0411911,-16.14807892
1064,12.60097313,3.015648603,4.821712017,-13.37709427,86.81734467,4.603309631
1065,13.87652779,-1.226377487,5.330983639,11.29211426,103.0793915,8.58829689
1066,11.55677032,-0.978896141,6.867556095,19.93313408,95.62771606,1.919422507
1067,11.37310886,1.230071783,5.359789848,15.88088989,83.72862244,2.788340569
1068,11.07390404,2.162206888,4.169762611,11.21535492,67.56576538,4.394962788
1069,8.792696953,2.224623203,5.263021946,-9.506392479,56.50991821,7.253825665
1070,6.001387119,2.065999746,6.677910328,-19.4059124,80.0374527,12.70029926
1071,4.099927902,1.675737023,5.936429024,-28.34643364,127.5341797,19.13169289
1072,1.522739768,0.155486852,4.240141392,-40.9304924,183.3149109,18.36629677
1073,-0.545197308,-1.292593002,4.653327465,-28.0372467,217.2692566,9.268687248
1074,-0.583073378,-1.804177761,5.392695904,-56.45830154,239.9135437,9.363251686
1075,-1.364490986,-0.690337121,5.470263004,-104.3319244,280.3895264,21.21239662
1076,-0.682212293,-0.090965375,4.387401581,-105.204689,229.904068,18.730093
1077,-1.344144821,-1.692612052,8.581332207,-58.3385849,204.6054535,10.43095875
1078,-2.110447884,-2.258491755,8.567278862,-0.439516008,185.061264,13.64707184
1079,-3.145563126,-1.990327716,6.56315279,30.65119553,173.0797882,20.08994102
1080,-2.187254906,-2.004622698,7.636415482,12.17321396,145.7951508,21.44170189
1081,-2.592983961,-1.513566852,7.268515587,13.18375683,114.203476,15.85271549
1082,-2.745511293,-1.79686904,6.698399067,12.91386986,82.83852386,8.86227417
1083,-2.450318336,-1.591393352,8.037615776,1.629846811,50.14602661,1.750893474
1084,-3.904868603,-1.651358247,8.721723557,-29.31280899,32.8684082,2.906773329
1085,-3.718771219,-1.429401875,8.718170166,-43.87103271,20.29855728,1.11462903
1086,-2.588214874,-2.137702465,7.955995083,-31.82581711,-1.780729532,-1.768947601
1087,-2.546246767,-2.024052143,7.995337486,-15.09412956,-23.06655312,-2.057666063
1088,-3.039484024,-2.338499069,8.32015419,-3.335881472,-40.34148407,-6.482932091
1089,-2.660816908,-2.800473928,8.600663185,15.08637905,-53.10273743,-13.75315285
1090,-1.891834617,-2.831602335,9.339850426,24.01368713,-64.46109772,-19.384552
1091,-1.233850479,-2.170701027,9.653827667,23.83288956,-78.33409119,-17.0041523
1092,-0.887216628,-1.625351548,9.553979874,14.29879665,-88.70842743,-9.412707329
1093,-0.945065081,-1.59745276,9.832901955,4.815907001,-97.62683868,-4.334122658
1094,-0.252117634,-2.16808629,9.828399658,-0.021950996,-108.5083923,-4.972886562
1095,0.168528944,-2.218610048,9.722646713,2.110737324,-117.7566147,-7.749221325
1096,0.233105928,-2.080668211,9.959974289,6.715197563,-122.6960754,-10.71955395
1097,0.609651446,-1.968570828,10.29727077,11.21337986,-125.8197098,-10.59499645
1098,1.043815255,-2.097546101,10.467556,18.51738548,-125.5079269,-12.59239769
1099,1.177300096,-2.317822695,10.33957958,26.27840805,-126.0551987,-13.65988064
1100,1.871627688,-2.263287544,9.842158318,28.74967766,-124.3460388,-17.86978531
1101,2.764467716,-1.716628075,9.974790573,26.66922951,-121.4477615,-21.89348221
1102,3.628957033,-2.222410679,10.76730251,33.90943146,-109.5101089,-22.49610138
1103,4.178610802,-2.028171778,11.07801914,39.53575897,-100.1384583,-20.77716255
1104,4.158496857,-1.163105845,11.51542759,32.9237442,-95.89463806,-16.99115181
1105,4.655373573,-0.333735287,12.09290028,18.42439842,-92.60988617,-8.981933594
1106,4.976557255,0.796987116,11.74469948,1.097860575,-87.84056854,2.254548788
1107,5.459967136,-0.03869452,11.24001598,-17.85663033,-74.70144653,10.27249146
1108,5.910159111,-1.847628713,11.36753654,-16.70265007,-44.51308441,8.412054062
1109,6.140902042,-3.537606478,11.73859692,-25.62421799,-9.806962967,2.599945784
1110,6.723831177,-2.41540575,11.48795986,-17.23310471,19.67395973,-11.75468731
1111,8.337914467,-1.295104504,11.51416492,-21.20253944,50.48895645,-20.76449013
1112,8.514300346,-0.784367085,10.94316101,0.258840859,74.7342453,-15.89041996
1113,7.524644852,-0.82046777,10.35829163,24.25684929,79.70889282,-4.340523243
1114,7.947436333,0.012328357,9.171518326,31.38392448,88.37428284,1.623466253
1115,7.684775829,1.11622858,9.433337212,12.38558197,75.87436676,-5.274328709
1116,7.246445179,0.695041776,9.630527496,-7.145633698,62.75135422,-2.176495314
1117,6.701659203,0.004078417,9.495891571,-7.190300941,48.29957581,0.908355534
1118,5.354865074,-0.696028471,9.445713997,-14.80015564,27.26407242,-0.479074389
1119,4.038192272,-0.675906777,9.352928162,-15.20268631,16.25687408,0.823238313
1120,3.61527276,-0.345689476,9.685359001,-7.798187733,-10.81335545,4.633333683
1121,4.054758072,-0.400137335,9.354198456,5.41326046,-18.12786865,13.79965496
1122,4.82186079,-0.079048514,8.867350578,7.244792938,1.745182872,24.3507328
1123,3.10058403,0.618522823,8.910003662,1.721083641,13.76364326,30.14061737
1124,1.503254533,0.911506116,8.567866325,-9.72088623,6.569341183,30.06706619
1125,2.876552582,1.439414144,6.527955532,-12.73281384,-3.443765879,25.54623985
1126,4.054698467,0.197813377,6.43950367,-4.698587894,12.50124645,26.36322975
1127,3.473727942,-1.73575151,6.651052475,-22.69286156,36.73033142,22.76403618
1128,3.307280064,-1.80143714,5.972874641,-34.64788437,42.74914169,14.8724966
1129,2.64528656,-1.173288941,6.199224949,-21.11312485,35.55675125,12.59904099
1130,2.693478823,-1.691275954,6.940532207,-1.539121032,20.12223816,10.65476799
1131,1.592718601,-1.998652697,6.584179878,25.89394188,4.863500118,9.818714142
1132,1.056292772,-2.14571929,6.547482967,52.84545135,-13.80659771,8.911349297
1133,0.487478971,-1.531382918,7.574655056,56.85114288,-32.76534653,7.296395779
1134,0.069211647,-1.490123749,9.045279503,58.74388123,-55.49315643,1.064942837
1135,0.463159829,-0.488432109,8.530617714,47.95709229,-71.78181458,-3.765998125
1136,0.882123232,0.477538884,8.542003632,19.84198761,-86.57356262,3.048271418
1137,1.528560758,1.113354206,7.634469986,1.729684353,-102.9880371,8.700173378
1138,1.719245315,1.037447214,7.415325642,-12.8775816,-101.3288574,9.748483658
1139,2.184428215,0.858135045,7.227482796,-22.94558907,-96.3392868,8.620606422
1140,3.194736958,1.03776288,7.104820728,-27.90146065,-102.8268356,3.356364489
1141,3.633661509,0.983707607,7.482800007,-19.38162613,-117.5718307,-3.791035891
1142,2.655082941,0.272749335,7.481066227,3.588670969,-124.8015442,-5.986388683
1143,1.98048234,-0.196035653,6.870162487,24.61127853,-120.10923,-7.009953976
1144,2.125719547,-1.49207139,7.328473091,50.01934052,-110.240448,0.081279702
1145,2.618304491,-2.243920803,7.428737164,60.15417862,-101.1465759,1.00482893
1146,2.846065998,-2.03335762,7.444581985,66.14509583,-93.36444855,0.274177432
1147,2.037247181,-2.0133605,8.127488136,57.60330963,-88.0639801,-2.12975359
1148,2.349442005,-1.516918182,7.753254414,60.32898712,-67.10419464,-4.479111195
1149,3.439807415,-0.455104738,7.575605869,53.6574173,-55.29159927,-3.213769436
1150,4.546669483,0.657538474,7.789973259,44.66423035,-55.22573471,-0.293475509
1151,4.608020782,1.016556501,8.104736328,45.11411667,-55.61996078,-0.436768472
1152,4.069561005,1.105489016,8.034639359,33.99141693,-54.10518646,2.439433575
1153,3.778721094,1.162277102,8.420175552,21.32072258,-49.88156128,2.332232952
1154,3.622980595,0.546092689,8.514435768,12.98538208,-37.42630005,-1.945295095
1155,4.669553757,0.309967965,8.326842308,3.682173491,-24.26972961,-7.895645618
1156,5.753840446,0.541701615,8.12033844,9.361289024,-22.36459923,-7.510172367
1157,6.679802418,0.534642518,8.186963081,7.514122486,-22.77153206,-7.006035805
1158,6.909080029,-0.04359905,7.993545055,7.230603218,-23.57730103,-6.183061123
1159,6.955651283,-1.153934121,7.349502087,5.613870621,-17.79822922,-8.864108086
1160,8.335697174,-1.378239632,7.513851643,15.12692451,-20.0459404,-14.10500431
1161,8.56013298,-0.632865965,7.179761887,12.50301456,-12.66285801,-17.73847389
1162,9.368409157,0.058522075,6.74462986,12.11274719,-1.646873832,-18.53889084
1163,9.913068771,-0.353402078,6.503961086,-6.820822716,21.8345356,-16.4063015
1164,9.373278618,-1.321718931,7.819280624,-2.690980434,39.96879578,-23.83153343
1165,8.30521965,-0.800074399,7.676878452,42.48869324,37.65895844,-34.38622665
1166,6.046423912,0.377622932,7.415431023,57.63222122,39.83274841,-29.25036049
1167,6.324709892,3.480048895,9.035071373,40.99965668,81.69037628,-13.73952675
1168,9.82050705,4.015303135,9.94407177,-4.708612442,95.72531891,-7.721941948
1169,11.85303497,1.289990306,9.471382141,-31.26250076,96.24500275,-25.97921753
1170,12.39141273,0.528914154,7.620003223,-26.81172752,91.7457962,-28.47416496
1171,11.55977535,2.039240122,6.463799477,-15.59242725,89.73651886,-11.6534214
1172,11.13469124,2.298211813,6.819536686,-7.985228062,107.5097504,-6.851794243
1173,10.84702492,1.523954868,7.403766155,-6.879645348,111.9188766,-0.095078543
1174,11.16807079,0.441869944,6.366391182,-4.395794868,100.4894562,-1.11198926
1175,11.11439419,0.959593117,5.890982151,-11.01179504,75.75362396,-6.710704803
1176,9.138253212,1.826370955,6.295138359,-11.51235676,48.06435776,-7.471353531
1177,7.445346832,2.610764027,5.008153439,-14.94096851,98.05916595,-2.909741879
1178,4.883662701,1.554688096,7.275544643,-39.16143417,237.5821228,6.752806187
1179,0.82679224,-0.039761499,3.958982229,-28.87703896,241.5812225,10.22453022
1180,-2.067252398,0.526092947,2.851248503,-30.70139694,219.3308868,14.21493721
1181,-3.399932384,0.359132171,2.435948849,-46.28635025,224.0217896,6.955689907
1182,-0.994186163,-1.174467325,5.414412498,-42.96141434,214.1653595,2.77427721
1183,0.608990192,-1.529935479,7.65271759,-36.83367538,191.9321136,3.801327229
1184,-1.056275487,-1.313280225,7.21198988,-27.71159172,175.5183716,3.489253759
1185,-2.574615002,-0.534547865,7.401322365,-16.02741623,154.1869659,5.887495041
1186,-4.606974602,0.118354082,6.732866287,-5.552754879,146.499115,6.845839977
1187,-3.53039217,0.113360867,7.811103821,-3.404723644,131.299469,1.070426226
1188,-1.561588049,0.079137981,7.041093349,-11.74998569,88.14107513,-1.356025219
1189,-1.91479671,0.35566628,7.219220638,-29.91938019,58.25896835,-5.929610252
1190,-2.804552555,0.446064621,7.58496666,-46.3744812,34.2449646,-5.86339283
1191,-3.876735449,0.308661044,8.208086014,-49.25327301,19.36489868,-5.912967682
1192,-3.152466297,-0.462113857,8.249047279,-36.3809433,7.253188133,-8.703802109
1193,-1.741800308,-1.107911468,8.614735603,-15.77174664,-8.328275681,-10.56288528
1194,-2.416079283,-1.311127424,8.774585724,-1.256614327,-27.41949272,-13.69608784
1195,-3.337748766,-0.526125431,8.71663475,7.880545139,-44.4152565,-14.51063156
1196,-2.767314434,-0.020551946,8.858170509,6.00266552,-59.5982933,-13.11592579
1197,-1.822674513,-0.111854002,9.172566414,-2.510037899,-65.13936615,-7.529448032
1198,-0.953044295,-0.205866814,9.537467957,-12.32807636,-78.73080444,-4.264455795
1199,-0.583984494,-0.223477602,9.836090088,-21.03440857,-92.7003479,-1.55253768
1200,-0.720954955,-0.182536721,10.14686871,-23.41713715,-103.6584015,-1.397766232
1201,-0.980374813,-0.452218741,10.31179428,-23.46048355,-109.4734879,-1.519002438
1202,-0.659066975,-0.58029151,10.80789566,-21.34480286,-113.9437866,-1.360162616
1203,-0.301229477,-0.595717072,10.81287956,-21.11310005,-121.1602325,-2.313565016
1204,0.62559551,-0.706079483,10.82664013,-18.61382484,-124.3397141,-1.091008067
1205,1.19120574,-0.868317604,10.60581779,-12.79423809,-125.24189,3.636155844
1206,1.630027294,-1.382126808,10.44824505,-8.151882172,-120.6560745,8.55282402
1207,2.319438219,-1.792981386,10.10454559,-2.985122681,-115.8250809,8.300889015
1208,3.130157709,-1.654844761,10.02936077,-4.683238983,-98.79206848,6.273285389
1209,3.443132162,-1.391642094,10.27370167,-4.577299595,-80.74573517,3.715406418
1210,2.987142563,-1.523773313,11.1936512,1.236517668,-67.25362396,2.103162766
1211,2.867963552,-1.643508077,12.0204277,10.22649002,-67.00614166,1.827886224
1212,2.990697861,-1.806479931,12.71279526,12.98313236,-73.03884888,2.305360794
1213,3.513118744,-2.104073524,12.62660599,8.818126678,-78.2924118,1.396005869
1214,4.027729988,-2.322902679,12.82160759,0.415748805,-82.16689301,-2.825980425
1215,5.266749382,-1.76593411,12.60691357,-23.67859077,-77.18697357,0.589521825
1216,5.588151455,-0.713705182,11.44461632,-47.70328522,-60.50484085,15.85038471
1217,5.166521072,-1.305964231,11.11081028,-25.53067017,-36.4619751,15.84742546
1218,5.267202854,-3.98029542,11.6207552,-31.31487656,-7.261882782,-12.19649696
1219,5.940007687,-2.59812355,10.5166254,-45.96862793,14.23303413,-35.61491013
1220,6.085945129,-1.434621334,10.30441284,-28.84971619,18.20280457,-30.87196732
1221,7.456840515,-1.608288407,8.916540146,12.96656799,7.055981636,-12.14609623
1222,7.984446526,-2.251540899,8.398810387,27.14255142,12.60885906,-3.056399107
1223,8.278471947,-2.026174068,7.889482975,7.229119301,24.50236511,-7.623677254
1224,7.011964321,-1.829534531,8.406105042,-1.294008017,23.91983223,-11.71928692
1225,5.285022259,-1.673391819,8.719511032,2.162222862,23.52851677,-11.89799881
1226,4.682593822,-1.448711991,8.700455666,9.796423912,20.53629684,-8.259523392
1227,4.574316025,-1.596935272,8.756071091,11.04706192,17.2069397,-4.541202545
1228,3.532062531,-1.423195243,8.960075378,13.19655514,11.37571907,-1.722545624
1229,2.950327396,-1.556448698,8.366941452,20.28467941,14.32605171,0.121756621
1230,3.106610537,-1.70293808,8.77897644,34.31203079,20.11895752,3.290667295
1231,3.306372166,-1.731287241,9.833375931,48.01502991,20.71781921,3.394233942
1232,3.9308846,-0.729954362,9.873607635,60.17305374,19.13150024,1.423874617
1233,4.07881403,-0.745457649,9.272583008,65.16905212,20.52411842,4.360013008
1234,4.095991611,-1.541431427,8.859456062,69.52108765,18.55734253,10.38001537
1235,3.591986418,-1.382759809,9.73119545,87.11372375,14.81188488,10.35534286
1236,3.065315247,-1.385065317,10.31204128,64.44236755,-0.35206452,3.516848087
1237,2.678333759,0.399933577,8.263496399,8.350678444,-37.61447906,-13.9461832
1238,4.2158041,0.528659642,7.016179562,39.99576569,-53.61407089,-14.20088768
1239,4.641672611,1.058408141,6.395509243,80.04836273,-41.52973938,-13.63140106
1240,4.728164673,1.196100593,6.621380806,89.98606873,-30.08641624,-13.01019859
1241,4.882865429,0.894730389,6.252377987,79.66727448,-36.35337067,-3.187484264
1242,4.815300941,0.728782058,6.52277422,58.72973633,-38.09554672,1.955953836
1243,4.451451302,0.581670523,6.175886631,59.7124939,-37.9744072,3.116461277
1244,4.607064247,0.285680652,6.503812313,46.87909698,-49.05370712,6.964981556
1245,4.295433044,0.104410492,6.677600384,18.11904907,-61.0974617,4.755072117
1246,3.980152607,1.369652033,6.685927391,-11.01918697,-62.16732407,-0.994119763
1247,4.433141232,2.005377054,6.473455906,-19.66947365,-61.68170547,1.837706208
1248,3.799399614,1.536488891,5.93670845,-26.82385826,-58.16196442,9.075948715
1249,3.158011913,0.990230799,6.148191452,-40.15248871,-47.96750259,13.98209095
1250,2.484652519,1.000826836,6.373543739,-44.34038544,-47.4152565,14.27719688
1251,2.632610083,0.439762026,6.369270325,-47.29389191,-40.97672272,17.41486359
1252,3.501065493,-0.056423143,6.554826736,-44.02243423,-47.56449509,21.71209335
1253,3.859062672,0.470719784,6.748808861,-46.12030411,-56.66099167,23.19260597
1254,3.623853922,0.768871069,6.398017883,-47.78703308,-61.05618286,17.54882622
1255,2.73011446,0.742846847,6.50301075,-39.16491318,-67.01176453,11.9511776
1256,3.296955347,-0.284782559,6.465237141,-22.41392517,-71.35923767,6.210837364
1257,3.323402882,-0.789759755,6.348810196,-6.186031342,-72.59561157,1.05651176
1258,3.104328871,-0.462081134,6.314796448,6.280513763,-68.95158386,-5.725406647
1259,3.475369215,-0.261470467,6.773848534,17.57592392,-67.80996704,-7.187279224
1260,3.039368868,-0.108365446,7.351372719,16.50654793,-65.52841187,-7.519191265
1261,2.906610012,-0.554716349,7.844413757,8.398251534,-55.85302734,-8.801879883
1262,3.817980766,-0.934527695,8.05684185,6.856828213,-41.98957443,-9.165464401
1263,4.265675545,-0.664559543,7.89899683,13.77983665,-30.51540375,-7.849838257
1264,3.609927893,0.360666901,8.092909813,-4.582073212,-24.13307953,-12.38148117
1265,3.374086618,1.14164567,7.914847374,-5.812380791,-22.28991508,-12.42542934
1266,3.927812338,1.462598324,8.14307785,-7.283883095,-23.39070511,-3.165441751
1267,4.18806076,1.317814231,7.964876652,-9.195886612,-28.80653572,6.950676441
1268,4.954786777,0.711548626,8.039036751,-11.36797333,-23.94588089,11.19303036
1269,5.847231388,-0.172896594,7.978845119,-11.88117313,-27.08496284,12.51145744
1270,6.996837139,-0.743985772,7.725491524,-10.23733139,-22.6908474,10.09350967
1271,7.572754383,-0.650173306,7.588541031,-7.214290142,-19.99698257,7.082403183
1272,8.239064217,-0.247371808,7.246164322,-6.557922363,-17.24778175,7.135893345
1273,8.715032578,0.207435846,7.063454151,-10.75378799,-15.07518196,7.445219517
1274,8.824749947,-0.115625486,6.855138779,-22.27161789,-11.99164009,9.771596909
1275,10.29454136,-0.788837314,6.080173016,-33.48950958,-6.693562508,10.62432861
1276,11.46342945,-2.006458759,5.210988045,-33.00074005,10.5434866,13.84343052
1277,12.14118385,-2.622390032,5.274120808,-19.87468147,37.82130432,9.440834045
1278,7.678846359,-1.685745239,6.224489212,2.872549295,61.87328339,12.08569431
1279,6.008238792,-0.473061621,8.285832405,18.24391365,117.0714264,1.948729992
1280,9.03955555,-0.369222999,10.36480427,21.73408699,127.4190521,-4.13637495
1281,10.08954811,-0.758012235,10.9338541,23.54714966,92.6632843,-0.831850469
1282,11.87850571,0.773656666,9.75611496,9.427739143,78.95076752,-5.091456413
1283,13.84402466,1.74299705,7.988588333,-0.339879781,100.440361,-2.441655636
1284,12.98297596,1.567886353,8.359835625,-11.84619045,101.0007248,4.09431982
1285,10.58186245,-0.391422749,7.768442154,-15.65435791,90.32024384,5.369253635
1286,9.99883461,-0.7853508,6.487137318,-21.74325943,84.67015839,2.193204165
1287,10.3112936,0.154233158,5.566798687,-25.64908218,81.93018341,0.527526438
1288,7.966777802,0.320751578,5.809128284,-27.22084045,70.04656982,6.208481789
1289,4.951169014,0.539462984,7.817402363,-30.22506523,52.84509277,13.57416821
1290,3.984704018,-0.513759971,8.300728798,-25.78822136,79.36588287,17.34169769
1291,4.513214588,-1.458114028,8.217560768,-0.450004458,159.4269867,12.20690346
1292,3.513870001,-1.837720871,7.408434868,-10.55086517,234.8704224,3.732401848
1293,1.710910439,-1.31164515,4.342209816,-11.27904797,234.8736267,-0.176595569
1294,-0.158505604,-0.455940932,4.120492935,-24.96814346,217.6530304,2.589927197
1295,-0.842092156,-0.068751082,5.808515549,-25.4240284,219.9925385,6.617769718
1296,0.273626864,-1.043965816,7.778731823,-8.977065086,210.984848,10.84775925
1297,-0.691430986,-1.826221347,7.361535072,-0.13219209,194.9170227,9.420994759
1298,-1.75120008,-1.976454258,5.793818951,11.15922737,168.6323853,5.010342598
1299,-2.391866446,-1.806174278,5.709673882,8.092008591,142.2793274,1.859122038
1300,-2.793992996,-1.951293349,6.751027107,8.295086861,119.5264816,-0.015598925
1301,-2.256109953,-1.675951838,6.580857277,10.84699821,101.3005066,-3.560756445
1302,-2.006952286,-1.290459991,6.454041004,11.20859337,77.65678406,-3.617571831
1303,-1.804897428,-1.159398556,6.686747074,17.82135963,63.06267929,-1.398346305
1304,-2.53848052,-1.203259587,7.30946064,24.07806206,41.72488022,1.56367445
1305,-3.630785227,-1.269291162,7.957330704,34.14578247,21.86701393,2.576184988
1306,-3.092509031,-1.105187893,8.467305183,39.21389771,4.884297848,1.46625185
1307,-2.861950159,-0.622644365,8.746084213,44.58860779,-4.730378628,0.440547943
1308,-2.430359602,-0.036484733,8.490521431,53.33409119,-18.9990139,1.841349602
1309,-1.990920782,0.086511664,9.048885345,58.34440613,-30.13809013,3.206470728
1310,-2.263895273,0.198940843,9.348360062,63.60679245,-42.79798126,-0.765310585
1311,-2.074154615,0.221864313,9.671898842,60.47444153,-59.03879166,-1.950609803
1312,-1.851559281,0.401966244,9.686676979,55.15558243,-72.46534729,-2.038868904
1313,-1.36561203,0.691523731,9.971931458,49.59003067,-82.50126648,-2.73238802
1314,-1.092668891,0.880876005,10.4435854,42.79740143,-92.54543304,-1.998837113
1315,-0.824014425,0.901947498,10.76161957,35.90793991,-102.2381821,-1.026061535
1316,-0.424317718,0.606925368,10.90543365,27.0910759,-111.6057968,-3.706035614
1317,-0.367413402,0.577492476,10.93039608,22.09984589,-116.7205734,-5.695202827
1318,0.223038226,0.597972631,10.71002197,16.43399239,-119.2976303,-4.065186501
1319,0.722077668,0.80728066,10.17605019,16.75272369,-123.8913574,-4.553394794
1320,1.181917787,0.734436929,9.859434128,20.22854805,-131.8307648,-4.777798653
1321,1.877905607,0.815833986,9.943319321,20.10419655,-130.1770477,-3.304176569
1322,2.811350822,1.071556211,9.547609329,16.33213425,-111.2247314,1.313753128
1323,3.477088928,1.017884851,9.557852745,14.3383503,-84.09783173,6.211130619
1324,3.821942568,1.255201221,9.835479736,12.9395752,-60.41643906,3.849954367
1325,4.117137909,1.607307076,10.74706173,6.902663231,-54.13702393,2.424773216
1326,4.095243931,1.908003092,11.48653698,1.688875914,-56.50790024,3.553207159
1327,3.213573217,2.010561466,12.34776974,-0.633947909,-59.48410416,5.951000214
1328,2.898307085,2.227616787,12.82721901,-1.381119132,-61.00439453,7.846330166
1329,3.577115059,2.186192036,13.62015533,-1.15539515,-66.63845825,14.8365097
1330,4.220161438,1.21711719,13.51459503,9.364792824,-58.50218201,21.7810936
1331,5.991854668,-0.817189455,11.83472157,-14.40451717,-36.21671295,15.41408062
1332,7.665578842,-0.864371955,8.824581146,-50.54059219,-28.25531387,1.579777837
1333,6.921135426,-0.56884402,11.37712383,-33.10871887,19.40279007,-5.546433449
1334,5.792789459,0.514519811,12.17487526,-22.89209557,35.3192749,-1.867702484
1335,5.85133791,1.036046743,10.99868774,-16.76202583,37.88499451,2.111914396
1336,7.790687561,1.036390424,9.204325676,-14.5350666,22.65127182,2.906556129
1337,8.799429893,1.176889658,8.126649857,-39.67510605,16.82221413,0.415908098
1338,7.526301861,1.722379208,8.257423401,-66.18946838,5.745921135,-4.575383186
1339,6.022696495,0.636063278,8.672292709,-82.16252899,-19.21628761,-8.92924881
1340,5.216567516,-1.280998826,8.609514236,-71.61323547,-23.4172802,-9.007541656
1341,4.879824638,-1.93821454,8.494015694,-63.61825562,-21.37116814,-5.788075924
1342,4.232290268,-1.45019269,8.909797668,-56.7399826,-27.8650856,-0.301529735
1343,3.314140081,-0.968597054,9.710394859,-45.48429108,-27.81052399,2.094493151
1344,5.001674652,-0.562726259,10.30866909,-36.55053329,-31.79279327,0.937784672
1345,6.440455437,-0.657343447,10.28957272,-25.1832962,-35.77836609,0.699775696
1346,6.415948391,-0.440667927,9.510198593,-12.63598537,-24.2991333,7.059040546
1347,5.260972977,-0.176739112,9.419082642,-15.33609867,-8.237772942,8.234692574
1348,4.09727478,-0.266922891,8.784173965,-23.15176392,5.929128647,6.778536797
1349,4.503437042,-0.315434247,7.137147903,-12.72374821,11.07113266,-1.116240978
1350,4.248463631,-0.689423203,7.171645164,-14.64766312,9.986524582,-0.155494869
1351,3.98355341,-0.840477288,6.109936714,-28.39801216,14.46484184,-0.292677313
1352,3.723417044,-1.072093368,5.295976639,-15.87832165,36.4159317,2.997605085
1353,3.080402374,-2.014920235,4.132820129,10.48123837,61.43758774,8.110865593
1354,3.220376492,-2.652933598,4.892564297,18.32187843,50.5046196,7.283308506
1355,2.320443392,-2.090172768,6.791206837,22.87462234,25.60517693,-1.249392629
1356,1.667945981,-0.313655555,6.860070229,26.59848976,5.522528172,-5.472333431
1357,1.362374902,-0.060845193,6.451363564,33.49975586,-3.669546127,-1.642433882
1358,1.785024285,-0.204639494,6.120018005,34.94065094,-16.31593704,0.890910327
1359,1.337409496,-0.551297903,6.289438248,24.21164894,-26.38148499,2.715938568
1360,1.428642273,-0.869828939,6.274627209,11.2897644,-38.90758133,-0.647800088
1361,2.59681201,-0.503941774,6.267075539,3.974095583,-58.75479126,-3.797333717
1362,1.772323966,-0.614331543,6.133916855,3.441020012,-71.66837311,-1.323201656
1363,2.402694225,-0.095313728,6.565851212,-1.479509354,-75.87078094,5.118065834
1364,1.871445775,0.297502369,7.053150654,-5.424416542,-78.9103241,7.735085011
1365,2.209178686,0.178905457,7.255215168,5.409223557,-79.9475174,2.037517071
1366,2.105424404,-0.397601992,7.261671066,17.71040916,-83.04802704,-2.345350504
1367,2.205770731,-0.613564193,7.240012646,26.9200058,-82.88816833,-1.245681286
1368,2.806798697,-0.663827121,7.543923378,33.31364441,-83.0127182,-4.095445156
1369,2.564783335,-0.459804952,8.050639153,35.76152802,-82.3336792,-8.43064785
1370,2.445397615,-0.111816078,8.118185043,37.59832382,-70.82387543,-10.08224869
1371,2.510337114,0.085446686,7.300954342,43.23184204,-50.61335373,-7.7096982
1372,2.985515118,-0.037657496,7.772040844,36.28432465,-41.01433563,-2.667385817
1373,3.673103333,-0.036298685,8.391534805,28.38692474,-48.09616089,-1.701649666
1374,3.466676474,-0.351572484,8.454703331,25.74453163,-50.22606659,-2.285177946
1375,2.892461777,-0.548875451,8.717733383,25.80621338,-40.10066605,-2.078512669
1376,3.701230526,0.028695583,8.69774437,19.20619583,-32.1585083,0.930789351
1377,4.850364685,0.293651074,8.678302765,8.356678963,-30.24975014,3.390025377
1378,5.275511265,-0.00758413,8.452535629,-1.252836585,-30.77619743,2.597206831
1379,5.702406406,-0.050491385,8.190857887,-6.515058041,-28.91877174,3.22900939
1380,6.173217297,-0.035734653,8.044445992,-11.34093666,-25.35812569,4.298059464
1381,6.633368015,-0.134597957,8.213758469,-13.20269108,-16.9164753,5.946631908
1382,7.514565945,-0.560340405,8.455893517,-15.2073698,-12.69330025,6.048492432
1383,8.117797852,-0.914798915,8.237300873,-12.72371197,-12.98314285,3.756100416
1384,8.540402412,-0.98946929,8.056946754,-5.866668701,-10.72511959,1.998822451
1385,9.256073952,-0.652910292,7.782618046,3.371189833,-10.34665203,3.85567975
1386,8.854115486,-0.368360639,7.59573698,8.712798119,-8.006611824,4.556867123
1387,8.987167358,-0.259321928,6.912362099,13.82710743,0.234990254,0.250870138
1388,7.78802824,-0.440286219,7.039432049,14.10177898,15.06493187,-2.632669449
1389,6.175455093,-0.43428427,8.671832085,12.60375309,50.09968567,-7.758891582
1390,6.867477894,0.863043845,9.547832489,11.16665268,79.08712769,-5.052474976
1391,9.228238106,0.848466158,10.45950794,8.65298748,93.42717743,5.039448738
1392,9.902000427,0.297973484,10.20902634,15.59860134,90.85788727,13.13724899
1393,10.83856106,-0.025294509,8.463450432,3.397722006,78.6306076,13.16082382
1394,11.7195816,0.313878655,6.684806347,-3.226596832,94.1031189,0.102844611
1395,11.67606926,-0.139908612,7.135662556,-17.90023804,117.3638763,-7.265173912
1396,10.84495163,-0.75583899,8.0876894,-12.0930624,123.348999,-1.846980453
1397,10.76900673,-1.149651885,7.164042473,-3.710992098,106.1436691,0.307972968
1398,9.689787865,-1.243797302,5.694300175,-9.628490448,92.50782013,-3.042817116
1399,7.854006767,-0.458638251,6.248465061,-17.74018288,89.32939148,-6.478191853
1400,5.873612881,0.578023076,7.672476768,-26.93930054,68.75271606,-2.884724379
1401,3.879864216,1.15966928,8.228121758,-28.64806175,46.03668594,-0.70275569
1402,2.607444048,1.133196354,7.431919098,-20.87939644,74.01019287,-0.704248726
1403,1.646022677,1.710843682,8.399400711,-8.836730003,136.1912842,0.516379416
1404,1.744022846,2.194098473,8.696110725,3.125647068,191.6628265,-2.378921032
1405,2.357934475,1.394641399,7.133925915,-25.59666061,217.0563507,-0.007326466
1406,0.455803514,-0.385852695,4.226978302,-29.80980682,217.4101715,11.48472309
1407,-1.682034254,-2.496409893,3.637556791,-12.93241596,195.6091156,8.769703865
1408,-1.077343464,-2.208425522,5.41619873,-38.2773819,184.693985,2.194918394
1409,-1.238158822,-1.752086401,7.014573097,-39.54171371,166.4957275,-0.400009215
1410,-0.272597939,-1.212851882,8.306207657,-29.78384972,157.904953,-2.950992584
1411,-0.630966663,-0.885763228,7.525788307,-34.53363037,134.1009369,6.285967827
1412,-2.934308767,-1.111862302,7.190885067,-25.24682808,119.7350922,8.286128998
1413,-4.017403603,-1.820712566,7.750885963,-20.30094337,105.6487961,4.325079441
1414,-3.315611362,-2.427104712,7.726719856,-9.492905617,83.44412231,4.574394703
1415,-3.055545568,-2.233716488,7.259791374,-1.561740041,58.04458237,3.674781084
1416,-3.095534801,-1.673225999,7.17450428,10.4420433,34.45425797,1.744379878
1417,-3.33745122,-1.00138855,7.305222988,13.8385973,16.33667183,-1.612936974
1418,-3.385464907,-0.242005527,8.097306252,10.49757957,-4.061765671,-0.119790636
1419,-2.510875702,-0.247445181,8.364603043,7.338397026,-26.70125771,-1.294917583
1420,-2.701624393,-0.881736994,8.276522636,7.179118633,-44.49088669,-4.341024876
1421,-2.780478239,-1.128031254,8.195207596,18.7455349,-48.72687149,-9.045046806
1422,-2.50869894,-1.225481749,8.766582489,33.64097214,-70.03575134,-7.635873318
1423,-2.036839008,-2.068059206,9.152373314,48.13573837,-92.59285736,-7.043187618
1424,-1.688113928,-2.277629614,9.710367203,53.62291718,-108.6461716,-9.769908905
1425,-0.965061486,-1.839756131,10.32406235,50.35823822,-126.9923706,-9.89024353
1426,-0.916798294,-1.251438022,10.75031185,45.47351074,-143.1450806,-9.057244301
1427,-0.852215171,-0.563644886,11.23842239,44.35599518,-163.6595459,-5.954237461
1428,0.086013168,-0.049001209,10.53431511,50.93876648,-176.6172485,-1.240903616
1429,1.44983387,-0.165097535,10.62140179,36.15100098,-174.5473938,-0.297319859
1430,2.374711514,-0.44833076,10.95983219,25.07657242,-162.7967224,-2.482325792
1431,3.460091352,-0.269139022,10.93106461,28.23373413,-149.4698792,-6.27091217
1432,4.263689995,0.878881037,10.91914845,32.1234436,-133.0743103,-6.618784904
1433,4.327362061,1.231466651,11.16780281,32.65942001,-120.7371902,-1.846009135
1434,3.909590244,0.859093308,11.46962452,33.12166595,-107.0831604,1.585131407
1435,4.354899883,0.201253533,11.77137661,30.53596306,-95.09360504,2.158477306
1436,5.050428867,-0.146088809,11.57748127,24.98734856,-92.55610657,3.019943953
1437,4.867978096,0.113868318,11.75008583,13.82637215,-93.5747757,7.016328335
1438,4.68490696,0.504662156,12.08971405,-1.658573866,-90.97953796,9.584267616
1439,5.368136883,0.371094882,11.62554169,-16.77255058,-85.98526764,8.530434608
1440,6.345820904,0.156460255,10.80187702,-26.48180008,-68.50907898,8.094646454
1441,6.472094059,0.264361143,10.68056488,-32.91007233,-32.74078369,10.09648514
1442,6.464786053,0.449741572,10.35439777,-39.88622665,-0.474196404,10.54658604
1443,7.121260166,0.445334971,10.87871552,-29.5167923,19.42259979,1.241485
1444,7.999407291,-0.600575387,10.92716026,-35.82438278,49.69018555,-4.698302269
1445,9.101198196,-0.848418236,9.395041466,-32.23557663,44.31828308,-1.335421801
1446,10.02720642,-0.34744367,7.204221249,-24.57388306,33.18162537,-5.369825363
1447,11.5135994,0.739815474,5.283956528,-30.27367401,30.88368797,-20.34700775
1448,11.1631012,0.892757356,4.6239748,-44.28285599,38.33272552,-13.16377544
1449,9.073129654,1.070601225,5.152994156,-48.15960693,19.70695114,-0.816079617
1450,5.706139565,0.24009268,6.941684723,-54.07530975,-3.997108221,4.634505749
1451,3.23225832,-0.365730703,8.182058334,-54.22048187,-13.77563667,7.143249989
1452,3.044954538,-1.464131474,8.902352333,-44.32485962,-4.81409502,9.480717659
1453,3.590371132,-2.197368622,8.763124466,-37.93045044,1.805071712,13.66846943
1454,2.479599953,-1.765319109,8.212813377,-43.31830215,12.6003828,9.88673687
1455,2.653051853,-1.554995656,8.361019135,-44.62149811,36.40050888,5.948485851
1456,3.69663167,-1.121467113,8.180506706,-73.27780151,68.27077484,-0.361651331
1457,2.795069695,-0.654877365,6.066066742,-84.87117004,95.48550415,-1.885574937
1458,2.076977491,-1.101673245,4.417188644,-42.08859634,104.1199188,4.762759686
1459,2.381866932,-2.048553705,5.865251541,-12.11932945,95.02535248,13.01047039
1460,2.196455479,-1.706308603,6.976256847,4.315544605,76.59210205,14.62295723
1461,1.061828971,-1.682154417,7.599923134,-0.902965844,68.87274933,13.85050678
1462,0.429231703,-2.073431253,6.289389133,1.31502831,55.14587402,10.69479752
1463,0.66376847,-2.367683887,5.798160076,15.46102619,36.78794479,3.481194973
1464,0.638349533,-2.126517773,6.392123699,30.48720932,15.58519268,0.393342227
1465,0.133223087,-2.152008295,6.461129665,45.08311081,0.097450614,-4.298238754
1466,-0.021919223,-1.865598559,7.167020321,50.45957947,-17.41824722,-8.11750412
1467,0.24791272,-0.323870242,7.215543747,50.38015366,-33.26404953,-9.472776413
1468,1.059189916,0.767303944,7.188851833,44.68311691,-45.55563354,-3.646057844
1469,1.532306314,0.633514404,7.563032627,31.18525696,-58.57288361,-1.333789229
1470,1.571781397,0.07848274,7.55013895,24.22639084,-68.14650726,1.175087571
1471,1.418472767,-1.654717565,8.095320702,18.4011631,-74.200737,3.011430264
1472,1.884592295,-1.982889414,8.434399605,10.90888405,-79.70405579,-1.010520935
1473,2.483356237,-1.171029806,8.475798607,3.546805143,-86.14104462,-4.489114761
1474,1.564882517,-0.561233521,8.706994057,3.157631636,-89.94781494,-10.1080761
1475,1.467272043,-0.638216317,8.726934433,16.49958801,-86.91579437,-15.40114784
1476,2.363770962,-1.536775589,8.797780037,32.00115204,-85.71045685,-19.22924995
1477,2.676258802,-1.7161901,9.072333336,38.90870667,-84.32172394,-18.55378342
1478,3.27140522,-1.265126348,9.029016495,35.20895004,-78.04009247,-13.71842194
1479,3.531692505,0.025480121,8.7109375,26.8065815,-70.39955139,-8.125204086
1480,3.653110266,0.145328596,8.665168762,30.77820206,-60.0177002,-2.433565378
1481,3.959709406,-0.859560728,9.334527969,25.72997856,-57.90510941,-1.643321157
1482,3.590217352,-1.800328374,9.548838615,17.66972923,-55.38840103,-0.999790847
1483,3.563218594,-1.585854053,9.575769424,13.94312859,-53.00683594,-2.945196629
1484,3.608188152,-0.839384973,9.524017334,8.863400459,-49.58784485,-6.104048252
1485,3.641806126,-0.400168657,9.179530144,5.863364697,-47.36440277,-8.882493019
1486,4.39650631,-0.228067517,8.978078842,5.19435358,-45.55319214,-10.75918484
1487,5.737663269,-0.244634762,9.003106117,5.580751896,-46.84033966,-10.85481453
1488,6.691824913,0.113650657,8.774477959,8.825496674,-50.17369461,-9.98592186
1489,6.994008064,0.471551389,8.824361801,13.07005024,-50.2240448,-8.791503906
1490,7.476488113,0.355522573,8.785125732,15.53493214,-48.7147522,-8.167620659
1491,8.116772652,0.031847522,8.444564819,19.14128685,-43.01435852,-9.1926651
1492,8.951927185,0.500347674,8.062348366,13.71234512,-30.02104759,-8.775894165
1493,10.22777557,0.617907822,7.509899139,-3.418605328,-6.837966442,-6.800929546
1494,9.676987648,-0.311812818,7.659705162,-11.368186,23.70584488,-4.067869663
1495,7.942228794,-0.882852614,8.372579575,-6.965247631,49.30809402,-13.59623337
1496,7.316083908,-0.258962542,8.689195633,-6.030292988,84.03229523,-12.91905594
1497,10.30433559,-1.415478587,9.209314346,-3.217878342,100.8315735,-10.43314743
1498,10.25292778,0.155676797,9.884740829,-2.866635799,69.72603607,-6.770847321
1499,10.63570595,1.625447392,8.868650436,-27.61736298,57.51164246,-10.40380192
1500,12.03590679,0.631923139,6.606927395,-50.4099617,71.0956955,-7.362210751
1501,10.93017387,-0.121080652,6.14589119,-36.71419907,73.56920624,-0.012268775
1502,9.460404396,-0.366686881,5.634575844,-27.68012619,73.68362427,1.638179183
1503,8.304143906,-0.273929387,5.982636929,-27.98688698,71.22640228,-0.118614852
1504,7.128977299,0.089717388,6.638533592,-28.4111824,61.54296875,4.181513786
1505,5.440028191,0.332098097,7.116224766,-28.68527794,63.9130249,12.41177082
1506,3.353711843,-0.065922566,7.617152214,-51.46352005,116.5884857,19.51103401
1507,2.209899426,-0.373613477,7.184662342,-43.08471298,176.3350677,26.33434105
1508,1.420230865,-0.046769794,5.846206665,-11.02103996,207.4874725,31.02698135
1509,0.473912209,0.326219767,5.181494236,-2.464803934,205.9315491,29.36252975
1510,-0.018386856,-0.079690084,5.378566265,1.039100409,193.8418579,27.4769268
1511,0.648747742,-0.557645857,5.740437984,0.949750721,183.8137054,24.17017174
1512,0.594520211,-1.348990321,6.427549839,-17.54582977,183.5934296,23.89620018
1513,-0.165291846,-1.826163292,7.545602322,-19.40796661,177.3178253,18.43706703
1514,-1.351107001,-2.216249943,7.576748848,-2.29592514,164.3976746,15.60510731
1515,-1.646895528,-2.24070859,8.236978531,8.24078083,141.88237,13.94015598
1516,-2.275089264,-1.935755968,8.285269737,16.60046005,125.0851898,12.2227211
1517,-2.960385799,-1.500483036,8.334653854,11.83271503,110.9853287,9.742458344
1518,-2.888676882,-1.222387195,7.818202972,9.177881241,92.72833252,5.554802895
1519,-1.803748012,-1.211212873,7.26432085,13.98547745,72.97711945,-0.523661792
1520,-1.473853111,-1.226649165,7.415685177,16.01343918,49.71186447,-1.648987174
1521,-1.913543344,-1.33008182,7.607148647,16.97537613,28.84618378,0.37105909
1522,-2.456986189,-1.382830977,8.215468407,11.32347775,8.60978508,-1.033498645
1523,-2.522417307,-0.880518138,8.431678772,11.18554211,-9.234589577,-6.952841282
1524,-2.556382895,-0.460234791,8.291135788,11.64910126,-21.34306335,-13.03953457
1525,-2.523869038,0.123962037,7.96092701,17.94330978,-24.05312347,-16.09854126
1526,-1.659830093,-0.203925192,8.218870163,17.98823738,-29.14473534,-19.55914307
1527,-0.758077443,-0.669407785,8.950112343,17.40435982,-44.05344391,-22.01324844
1528,-1.486994624,-0.410374314,8.99634552,19.40366173,-61.1350708,-19.7254467
1529,-2.054727554,-0.173212573,9.130773544,17.11310959,-68.9413681,-16.85466576
1530,-1.270510077,0.055999726,9.867127419,16.57253838,-78.5386734,-13.74791145
1531,-1.139731169,-0.124272004,10.33557606,18.47786713,-88.00980377,-10.40859127
1532,-0.918834805,-0.391548842,10.39211845,21.50144768,-90.97384644,-9.31993103
1533,-0.37097162,-0.61300832,10.42369366,20.6008625,-96.71569061,-8.882716179
1534,-0.047926098,-0.354375005,10.66150665,14.81314182,-104.2233047,-8.851264
1535,0.517752349,-0.35186252,10.78500938,11.173769,-109.3590012,-8.782739639
1536,0.898171425,-0.389626592,10.96293163,6.572340965,-109.8856659,-6.415462494
1537,1.122155666,-0.535395205,11.0232811,3.436261654,-109.4944916,-5.641089916
1538,1.609365821,-0.39813596,10.79253387,2.140907764,-108.9457245,-3.828464508
1539,2.066076279,0.070315748,10.25160313,-2.046993732,-112.0840988,1.164975047
1540,2.550049067,-0.673281968,10.48439693,10.38536739,-103.5698471,6.410636425
1541,2.883119345,-2.74234724,11.43832016,43.85367966,-89.25037384,9.439080238
1542,2.9269526,-3.140645504,12.22007179,72.53420258,-86.40519714,9.220713615
1543,3.326853991,-1.925316572,12.41019726,77.41181946,-90.62359619,4.729244709
1544,4.086719036,-0.15312922,12.00185299,67.65604401,-88.09697723,2.516896248
1545,4.730237961,1.12605083,11.82878494,51.55249023,-70.48435211,7.0956707
1546,4.839820862,1.537748098,11.80978298,24.92386246,-48.75577927,13.97222328
1547,5.232693672,0.352727056,11.90177345,19.40288734,-23.04189682,12.08684921
1548,6.280345917,0.062794074,11.03590012,23.871912,-3.667413235,5.477921009
1549,6.685998917,1.469244838,10.72930813,6.770348549,17.99726868,3.419421673
1550,5.665826321,1.748710513,11.6516819,-4.252717495,48.7341156,3.870310545
1551,5.526009083,0.434125155,11.1483078,-5.495606422,64.79289246,3.639202595
1552,6.216237068,-0.87063992,10.21692276,6.380255699,70.71013641,2.398831606
1553,6.180136204,-0.642451406,9.06564045,21.78418541,79.05686188,-2.821446419
1554,6.193759441,0.911217332,8.917785645,8.409104347,71.17242432,-6.366858006
1555,5.82541132,1.765896082,8.634287834,-14.41975689,55.29336548,-5.750783443
1556,4.692713261,1.141661286,8.110906601,-27.65195274,37.75636292,-6.013972282
1557,3.516180038,0.325487852,8.546220779,-36.89190292,8.718920708,-5.440766811
1558,1.875557542,0.572712779,8.521544456,-33.61623001,4.503876686,-3.390776634
1559,1.356056809,0.593939662,9.067687988,-26.2410202,23.9848175,-3.316974401
1560,2.341444969,0.696775377,9.323373795,-22.70128059,32.82949829,-4.261324406
1561,2.779275656,0.411147475,9.758752823,-32.69740677,31.17332268,-6.306571007
1562,3.107962608,-0.060642883,9.480072975,-33.8312645,23.55717278,-4.188290596
1563,3.36593318,-0.268329352,9.456396103,-18.95474625,9.190664291,4.35447979
1564,2.475671768,-0.021703761,9.47610569,-18.13265228,-1.80711925,9.076582909
1565,1.99555254,0.46296224,8.092794418,-28.35151291,-12.94978809,3.302506447
1566,2.621002913,0.673195779,6.994057178,-31.16700745,-8.751137733,-3.908627987
1567,2.745975018,0.18816562,5.726388931,-13.39372253,2.886047602,-5.60333252
1568,2.632621527,-0.591101468,5.637669563,-8.399682045,16.8559227,-1.27516818
1569,2.763346434,-0.012191776,5.337225914,-19.92194176,17.44329643,-2.941907644
1570,2.291854858,-0.199360505,5.737337112,7.043464184,8.813404083,1.397768855
1571,1.866068125,-1.20238781,6.68169117,41.0579834,-6.730752468,7.58420372
1572,1.218274117,-1.580696106,6.993857861,48.54220963,-24.30815887,5.561658382
1573,0.766074121,-0.930640459,7.251319885,31.93570709,-34.15002441,-6.046270847
1574,0.587615073,0.278435141,7.114929199,33.71967316,-33.93034363,-13.58263493
1575,0.550983965,0.200204238,7.741714954,36.51554108,-33.59077072,-5.76364994
1576,1.060214758,0.550792456,7.916103363,36.46570587,-42.12299347,4.039160252
1577,0.903064191,0.813376606,7.585719109,31.21926117,-58.08780289,14.06973553
1578,1.183709025,0.196718663,7.560657501,20.49568939,-76.58469391,22.33332825
1579,1.163161039,0.183620945,7.185082436,13.5822506,-90.08960724,21.4197998
1580,1.634961605,0.335547149,6.943064213,13.88534546,-93.38703918,17.42747879
1581,1.977054715,0.171235159,7.215373039,8.572548866,-92.77293396,12.60331917
1582,1.584830165,1.036782622,7.217672348,1.218454003,-94.81118011,2.270298481
1583,1.422468781,1.080038667,7.319893837,-0.737800002,-100.3920746,-1.778468132
1584,1.480795503,0.241224721,7.540696621,-6.372673035,-104.2618942,-5.509530067
1585,2.046112776,-0.118718199,8.059571266,-8.936593056,-108.1882782,-9.079734802
1586,2.501646519,0.195167959,9.058046341,-9.204276085,-108.5179596,-13.89034367
1587,2.262798786,0.421148777,8.944824219,1.321109414,-104.1131134,-13.72842693
1588,2.334596634,0.525423825,8.221341133,14.08037281,-83.8601532,-5.923152447
1589,2.663826466,0.389527112,8.145028114,29.41032791,-65.91646576,1.392351151
1590,2.978164434,0.762656569,8.897216797,0.705014884,-49.53913879,-2.495095491
1591,3.404282331,0.595852554,9.226840973,-19.46612358,-40.45060349,-6.018579006
1592,4.072516441,-0.423170805,9.39807415,-31.0964489,-34.55155945,-9.294257164
1593,4.591185093,-0.830657065,9.621326447,-30.30799866,-37.29287338,-5.17674017
1594,4.694580078,-0.186512873,9.502429962,-36.32955551,-37.5104866,-2.595052242
1595,5.012013435,0.611630917,8.796276093,-35.56562805,-32.25183487,-2.923623562
1596,5.992336273,0.348827064,8.572745323,-31.62653923,-27.59592056,2.547294855
1597,6.873366356,-0.194605306,8.434669495,-30.1573925,-29.64079857,7.948306561
1598,7.031720638,-0.726350307,8.719673157,-27.57300377,-27.1995182,7.957454681
1599,7.327971458,-1.053927898,8.722153664,-20.31038857,-22.63670921,5.638904572
1600,7.889249802,-1.207489133,9.020971298,-13.43567753,-18.92897034,1.76291883
1601,8.867688179,-0.680315375,8.675416946,-7.554270267,-17.71614647,1.313209414
1602,9.637019157,0.027410731,7.888789654,-4.780884743,-17.53439713,3.311361074
1603,8.506523132,0.711605132,6.905591011,-6.754151821,-14.82126331,4.367424011
1604,6.022707939,0.486232847,6.258425236,-21.23747063,15.53145123,9.173861504
1605,5.890985966,-1.430894375,8.010290146,-22.36445999,70.6710434,7.750650406
1606,7.932547569,-2.503359318,11.44960785,-2.511532784,94.42707825,-6.205897331
1607,11.04402828,-2.66118288,10.7093811,-12.25323772,97.96536255,-22.32434654
1608,12.82607937,-1.150829554,8.640483856,-12.39153385,74.55479431,-24.95700645
1609,10.73139,1.27538538,8.49825573,-6.349334717,61.14607239,-11.5440464
1610,10.66378212,1.406852961,8.03653717,-3.246416807,85.65312195,4.641455173
1611,11.26465225,-0.475250959,7.850863457,11.13940907,89.74823761,19.94251823
1612,10.9539299,-0.82174927,6.525774002,14.36768246,79.59664917,24.22776794
1613,10.76673222,-0.24659434,4.769884109,-1.64230752,73.59414673,22.89318848
1614,9.350235939,0.138496876,4.34397316,-0.568728864,71.88751984,26.13908386
1615,7.185318947,0.395123512,5.032823563,20.166996,67.34162903,34.59754181
1616,4.278569698,0.293449104,7.298103333,32.0953598,48.50666809,41.39039993
1617,1.865605354,-0.164028972,7.299489498,21.18566322,66.80773163,36.40522766
1618,0.896231294,-0.018878944,7.72243166,1.316221476,118.6130524,24.55964088
1619,1.637764573,0.007910797,7.104293346,-0.303348035,165.8549957,12.75401974
1620,1.875523686,-0.257257581,6.414789677,5.609720707,187.9481964,7.272141933
1621,1.408790469,-0.431578219,6.348818302,6.32584095,197.0260773,6.723494053
1622,1.32136035,-0.088987365,7.687520504,17.97720718,206.8181458,6.677792072
1623,0.49652493,0.399684012,8.158881187,30.93079948,208.6559448,2.539391518
1624,-1.333405733,0.214067072,7.162124634,42.08132172,192.4949951,2.179586649
1625,-2.740321875,0.252909899,6.685674667,22.68465042,184.9256744,5.740631104
1626,-3.064363003,0.87966907,8.545519829,0.227701649,172.5541534,7.613400936
1627,-3.093284845,0.64536649,7.882751942,3.917907953,143.5378418,5.896018505
1628,-1.271628022,-0.37925151,7.953832626,8.897167206,119.4081802,3.763803005
1629,-1.667644143,-1.114036679,7.002268314,19.14557648,92.51509857,2.371624947
1630,-3.152818203,-1.436853886,6.991536617,27.24053383,68.69364166,2.060561895
1631,-2.795755625,-0.445593834,7.129285336,36.67050552,47.33311081,2.697582722
1632,-2.771204472,0.401911676,7.903517723,37.72670364,23.76373863,5.471429825
1633,-2.749711514,0.716811419,7.693840981,36.05566788,2.418215513,8.096617699
1634,-2.955214739,0.707685769,7.658847332,35.7191124,-15.22191811,8.346514702
1635,-3.112585783,1.146384954,8.059555054,37.74901199,-31.41303444,9.406224251
1636,-2.843377829,1.139264941,8.663497925,34.25243759,-47.23384094,8.288408279
1637,-2.408710718,1.005077839,9.05313015,31.1369648,-61.53910446,3.599675417
1638,-1.848346233,0.887712598,9.041368484,24.48446465,-77.91210175,1.499869823
1639,-1.556628704,0.74760294,9.477891922,19.6492939,-100.2259064,2.407919407
1640,-1.418978453,0.240634322,9.996771812,14.07008457,-121.3716736,1.615612626
1641,-1.021802545,-0.003288759,10.66157436,7.892719269,-136.1470032,1.982495308
1642,-0.769561231,0.238091961,10.88321781,1.690051675,-141.7336121,0.358942538
1643,-0.09808436,0.6088202,10.95623302,-6.398340702,-143.7900543,0.002824006
1644,1.26219821,1.003762126,10.85096836,-5.844121456,-148.7038269,-0.594965398
1645,1.811025262,0.887108088,10.85561466,-5.257787704,-148.6174316,-1.231439233
1646,2.44666338,0.756248116,10.80839062,-10.49607277,-142.6590118,-3.007007122
1647,3.099441528,0.529684246,10.28087616,-8.928312302,-131.1204071,-6.089163303
1648,3.881847858,0.758116066,10.2392168,-3.811254978,-113.721077,-8.815911293
1649,4.397914886,1.765791297,11.27283478,2.626859903,-91.63150024,-10.98306942
1650,4.358428478,2.835569143,11.94804287,-1.77167654,-85.32809448,-10.44625759
1651,4.43148613,2.536595821,11.92822647,-18.41941261,-83.75624847,-10.62085533
1652,4.323718071,1.363923192,11.82325935,-37.09516144,-83.85429382,-4.669909954
1653,4.706486702,0.194252729,12.08703613,-40.22930908,-83.53256226,0.732193112
1654,5.375968933,-1.201196074,12.57757568,-25.288517,-79.73066711,2.535482883
1655,5.622831345,-2.05785799,12.19663048,-6.749536514,-73.60693359,1.109531403
1656,5.850759029,-1.950000644,11.12919426,-9.826750755,-54.40246201,-1.019498825
1657,6.879985809,-1.767588496,11.5032177,-12.05698204,-19.34195137,0.09857706
1658,7.782002449,-1.057177782,11.49956608,-16.43403816,15.03106785,-9.720373154
1659,7.935948849,-0.723928154,11.04416847,-9.449778557,29.93538666,-12.23972988
1660,7.461191177,0.012158595,10.75985909,8.29713726,35.08235168,-0.771521986
1661,7.810865402,0.962031662,9.548518181,2.931950092,42.81330109,2.784151077
1662,9.082847595,1.546770692,7.912386417,-16.04694939,34.21682739,-0.541070998
1663,8.709124565,0.473182589,7.401344776,-23.72062492,24.78972244,-6.512927532
1664,8.06305027,0.009583792,7.498822212,-24.38891792,13.43513393,-6.088066578
1665,6.65260458,0.760911822,7.621822357,-26.45105934,-4.734852791,-1.387955666
1666,4.883388519,1.33232522,7.453081608,-22.56724167,-4.376591682,7.504620075
1667,3.783045053,1.563962221,8.100494385,-33.84531403,16.07000542,14.74505329
1668,4.164604664,1.31069684,7.964346886,-56.18460464,41.54257202,17.57405663
1669,3.777827501,0.28581059,7.955761433,-78.55456543,52.35180283,14.61243153
1670,2.680749893,-0.021494389,6.660881996,-65.33785248,55.68524551,7.614336967
1671,1.801416993,-0.950317442,4.448745728,-21.16345406,91.5109787,16.83623314
1672,1.649343371,-1.529111862,2.800972939,-4.83524704,114.2219925,27.31353951
1673,1.877262354,-1.710731983,3.770404577,-14.22924995,97.87709045,20.72166824
1674,1.367267609,-2.12744379,6.934196949,-8.701454163,79.86928558,16.40686798
1675,0.711977959,-1.486995697,8.075888634,15.12806511,67.78673553,10.33176041
1676,0.271745324,-1.653130531,7.499706268,32.41768646,53.17476654,8.58569622
1677,0.004662264,-1.699702978,6.958855629,33.21888733,27.96045113,0.601242959
1678,-0.353517413,-1.322026253,6.71323204,27.94862747,11.13795757,-6.842648506
1679,-0.301619202,-1.666949987,6.89141655,37.19364929,1.131145835,-7.169952869
1680,0.50177598,-1.233100533,7.394556046,38.27222824,-15.22033215,-12.61244297
1681,0.514179707,-0.497393489,6.943718433,37.86460876,-31.82804298,-13.11501408
1682,0.277272284,0.080252379,7.388240337,30.30002022,-52.43688965,-7.929551601
1683,0.246396899,0.22669591,8.067296028,19.09968185,-66.57608032,-0.294166833
1684,1.274680257,-0.015067223,8.666514397,7.226883888,-76.66646576,4.067721367
1685,1.441346765,-0.375834167,8.34056282,1.028215289,-83.79273224,2.86771369
1686,1.598721862,-0.612354875,8.617077827,1.6627599,-83.73797607,-1.097172737
1687,1.576586962,0.070343018,9.035690308,5.492606163,-83.39067841,-4.42599678
1688,1.973995209,0.380186975,8.953874588,11.94411373,-85.86174774,-5.029968262
1689,2.060204744,-0.636799753,8.690052032,19.64099121,-85.98082733,-4.003631115
1690,2.671583891,-1.237601399,8.600063324,25.19183731,-85.50314331,-2.59032321
1691,2.456287622,-1.012546659,8.544734955,17.50712013,-72.88089752,3.015602827
1692,2.114992142,0.058713757,8.234639168,0.306441098,-63.33377075,7.00265646
1693,2.614104748,0.373293996,8.059037209,-8.983595848,-60.62678909,8.304127693
1694,2.902976513,0.176533148,7.830141068,-10.34797192,-65.40599823,6.268479824
1695,2.983622789,-0.102260068,8.599169731,-6.907252789,-70.55136108,3.750642538
1696,2.791166067,-0.036281396,8.73746109,-4.300744057,-64.7820816,3.736852407
1697,3.230015278,0.154324889,9.130588531,-0.095959045,-55.92269135,4.870635509
1698,3.508881092,0.472143531,9.463504791,0.475446552,-50.66418839,4.954738617
1699,4.047249794,0.890856326,9.524360657,-1.886647463,-48.93231964,3.440269232
1700,4.494726658,0.823523939,9.239470482,-10.03820324,-44.41489792,3.887889624
1701,5.642999172,0.350627244,9.156905174,-16.09712029,-44.02584076,7.966079712
1702,6.187222004,-0.299330741,8.935610771,-17.27237129,-45.05466843,14.05489635
1703,6.570384026,-0.705051482,8.786596298,-18.1029644,-41.58603287,17.62398338
1704,6.67628479,-1.23387742,8.708091736,-13.90549278,-37.01591492,15.833354
1705,7.076553822,-1.235659003,8.690517426,-9.18954277,-32.16976547,10.31030083
1706,7.264157772,-0.923587263,8.591122627,-9.409098625,-27.92014694,5.280861855
1707,7.663024902,-0.385636926,8.775392532,-17.36485863,-17.85744667,-2.020884752
1708,8.206725121,-1.071853042,9.210271835,-23.64225769,0.247015774,-3.285053015
1709,7.134299755,-2.548169374,10.42617512,-19.57022285,21.83524513,-3.565145016
1710,6.894843102,-2.537695408,10.76480007,-13.53002357,52.25220871,-7.37785244
1711,7.937026501,-1.306152105,10.1109705,-5.302210331,72.39563751,-9.40477562
1712,7.318883896,-0.936366916,10.67999172,-4.86592865,77.62240601,-9.047177315
1713,8.75770092,0.563509941,9.698122025,-19.70812607,83.13549042,-7.759094238
1714,11.50283527,0.479028016,7.800684452,-25.47371292,90.28010559,-6.593119144
1715,10.89814758,-0.379624486,7.109790802,-23.65728951,102.6820374,-3.752535343
1716,10.21428776,-0.890032053,6.790579319,-11.63230801,103.2161331,4.846843719
1717,9.989109993,-0.85593617,5.651671886,-2.75458169,95.89664459,5.960249901
1718,8.553612709,-0.228356898,5.390765667,-14.89307022,81.52928162,2.321085215
1719,5.760535717,-0.372750878,6.163759708,-33.32065582,77.34488678,6.511904716
1720,3.31576705,0.101372823,7.440117836,-41.66989517,79.57954407,11.82118607
1721,2.570375681,0.048568591,7.754855633,-58.5495491,101.494194,16.68131447
1722,1.728353977,-0.292127967,7.811528206,-83.56222534,154.1253204,18.86190796
1723,1.158792853,-1.488302946,7.745727539,-73.81056213,182.067276,21.32641983
1724,1.094255686,-2.489437342,7.060826778,-55.56890106,196.4410095,22.51381683
1725,0.358043313,-2.400349855,4.611986637,-29.3863945,199.5278168,23.48860168
1726,-0.850472689,-2.393333197,4.056286335,-4.550850868,192.3296661,21.78767776
1727,-1.278955579,-2.319641113,4.985555172,3.829237223,176.7883606,18.91789818
1728,-1.342900038,-2.414535761,6.452127457,-2.928128958,166.7562561,17.93433762
1729,-1.176681876,-2.084513426,7.381401062,1.030002356,145.3650055,12.69303036
1730,-2.100649118,-1.382252455,6.894241333,-4.970803738,133.5999756,5.157833099
1731,-2.855333805,-1.405796647,7.465183735,-7.450607777,118.6119308,6.573436737
1732,-3.022072554,-1.62786746,7.266016006,-1.60501945,105.9769974,5.878726006
1733,-1.912902832,-1.943549275,7.148655891,8.052146912,88.42170715,1.467629433
1734,-2.216428518,-2.077240467,6.781033516,17.02019882,65.30020142,0.082723938
1735,-3.302612543,-1.862684846,6.682487011,27.54981995,44.7491684,1.130997419
1736,-3.479890108,-2.029520035,7.276132584,39.88557434,33.04279709,-1.313937545
1737,-3.427572012,-2.097828865,8.470574379,44.06747437,17.46567917,-8.437851906
1738,-3.174129486,-1.99872458,8.504871368,50.4930191,2.866914034,-10.85120487
1739,-3.669090986,-1.90103066,8.238897324,54.51742172,-5.774561405,-9.601998329
1740,-2.927910566,-2.051665306,8.27616024,63.62776947,-20.93712425,-11.20960712
1741,-2.657019138,-1.84688139,8.418246269,68.09573364,-35.02801514,-16.59445381
1742,-2.646064758,-0.877497196,8.530308723,71.93141937,-47.68120193,-17.00947189
1743,-2.456362724,-0.361397982,8.904966354,69.56642914,-60.57176971,-11.81558895
1744,-1.920742035,-0.384024739,9.520264626,68.58546448,-73.56599426,-5.798326492
1745,-2.416187525,-0.589816511,10.26924038,63.55809402,-82.47296143,-2.211228848
1746,-2.547872543,-0.32241866,10.70608425,55.86008453,-86.76451111,0.588710725
1747,-1.772266865,0.121230006,10.77270508,49.79068375,-96.06793213,4.331241608
1748,-0.716697097,0.457922518,10.65626335,48.34757614,-105.4052505,7.933168411
1749,-0.348743141,0.536996186,10.5794239,43.84946823,-113.6659088,12.67062569
1750,-0.252441943,0.536199629,10.29008007,40.08768463,-120.1155167,14.92167854
1751,0.018699318,0.267710149,10.34666061,34.68774033,-119.1898346,14.47801685
1752,0.817397177,0.041430306,10.45680428,28.71823692,-120.2177277,13.75554466
1753,1.277472973,-0.035493173,10.69835758,22.45560646,-125.9587326,12.34416294
1754,1.451828599,-0.018343931,10.75274277,16.65093231,-126.2424011,9.752305984
1755,1.797542095,0.098309591,10.83478451,9.501696587,-117.7177505,4.987966061
1756,1.951909184,0.185337231,11.14752197,11.2681427,-106.5549316,0.935023129
1757,2.517207146,0.17384699,11.77978706,10.78126144,-92.76667786,-2.417964697
1758,3.507961988,0.141458422,12.06318951,19.13752174,-81.38032532,-6.895031929
1759,3.974310398,-1.016148686,12.69791508,53.69597626,-71.24982452,-7.480182648
1760,3.497143507,-1.668216705,12.96655941,42.71654129,-69.54266357,-2.797984362
1761,4.739053726,1.762242079,11.81571579,39.6336937,-53.73684311,7.913931847
1762,6.034980297,3.302536249,11.54576492,36.56647873,-40.94301605,14.17215919
1763,4.986655235,3.620110273,11.23690414,17.95196724,-37.67567062,14.18399525
1764,3.235370398,1.561084032,10.52954292,4.01412487,-17.26570129,11.50248337
1765,4.183074474,0.254878759,9.906188965,2.667393923,21.1694355,3.260943651
1766,5.159413338,0.09583658,10.18027782,14.27318859,56.5565834,-1.060404181
1767,6.183589935,-0.368089229,9.861229897,23.68786812,68.73986816,-2.307325125
1768,5.612456322,0.488380313,9.256281853,13.03429127,57.86293793,-2.270094395
1769,6.069307804,2.145772219,8.769080162,-11.44720936,51.48880005,-3.85337925
1770,5.579828262,1.827529192,9.532766342,-38.54696655,38.13933945,-10.09244728
1771,4.43922472,1.378241062,10.19849396,-48.68362427,17.29707909,-16.28059387
1772,3.66065836,1.537934542,10.03632736,-50.40113449,-1.330964208,-16.11183929
1773,2.485543013,1.518023968,9.048716545,-50.20165634,-10.00687504,-10.52005577
1774,1.585610032,1.123176217,7.796990395,-46.55789185,-1.602329969,-2.019743204
1775,1.747668266,0.186982766,7.657350063,-26.11947632,31.49378014,7.088991642
1776,2.297139645,0.008809865,9.00043869,-9.293574333,55.63766861,12.38115215
1777,3.597317696,0.422275484,10.52561855,-0.976069391,46.10186768,13.92474556
1778,4.254450798,0.644692957,10.2907095,-12.97714806,27.79271126,13.19719315
1779,3.701910973,0.252859682,9.737633705,-8.164090157,19.72188759,11.82700157
1780,2.935791016,-0.073668309,9.855769157,-0.438886821,13.72457123,8.096700668
1781,2.151624203,1.828478456,10.43351555,-15.73272133,9.992172241,0.74067533
1782,1.758946896,1.791170359,9.436676979,-30.35965919,-9.962198257,0.477057397
1783,2.860691786,1.071341395,8.559700966,-32.76790237,-23.19809341,5.992196083
1784,3.809607029,0.633464932,7.70278883,-24.69686508,-30.62737846,7.024993896
1785,3.534269094,-0.362855554,6.664439678,-32.08695602,-18.23734474,7.585181236
1786,2.859054804,-0.811558783,5.535795212,-51.46460724,-2.696312428,2.663239717
1787,2.228308916,-0.473979741,5.105134964,-55.49228668,10.94761562,-5.588857651
1788,2.413907528,-0.287293732,5.403510571,-54.21269989,1.695841312,-8.727274895
1789,2.991892815,-0.40803197,6.603731155,-33.44289398,-11.12876797,-7.550299644
1790,2.28026557,-0.774483144,7.300628662,0.122204855,-24.02562332,-3.116815805
1791,1.632143974,-1.194595337,7.623713493,20.50728035,-39.85196686,4.600234032
1792,1.435799122,-1.149225116,7.040439129,27.03643417,-54.11920929,5.204907894
1793,1.367543459,-1.085183263,7.179381847,16.26179695,-54.65636826,1.814751029
1794,1.656799674,-0.608847439,7.252786636,10.01314259,-60.47341537,-3.255199671
1795,1.461889267,-0.279958457,7.42386055,9.134410858,-70.26515198,-2.231673956
1796,1.454419851,-0.341670156,7.908779621,11.07709122,-82.48846436,1.007788301
1797,1.249923468,-0.447966278,8.06801033,21.77895927,-98.56274414,2.046765089
1798,1.033709049,-1.021887541,6.879033089,30.51132202,-109.2823486,6.355651855
1799,1.813187003,-1.06367135,6.995507717,33.98810196,-111.148201,5.034934521
1800,2.658591509,-1.026749611,6.501725197,40.34406281,-112.8717957,3.129524708
1801,2.226795912,0.162502557,6.02880764,50.51431656,-104.2982254,-1.684831738
1802,2.129088402,0.558464348,6.253013611,53.14533234,-94.11387634,-7.280454159
1803,2.811894417,0.571680784,6.679679871,58.76124573,-84.52037048,-14.61718369
1804,3.232893705,0.147010535,7.298836231,59.36737823,-76.0105896,-10.92042542
1805,2.829031467,0.033793882,7.341979504,48.94934845,-68.20897675,-1.713308096
1806,2.769661188,0.056072153,7.497001171,28.49540138,-57.59382248,2.44985199
1807,3.109499216,0.229393706,7.932152748,9.569781303,-44.46582794,0.723013401
1808,3.981430054,0.655258596,8.606352806,3.251930475,-34.82170868,-2.758774996
1809,4.585098743,1.230234504,9.279631615,-5.680167675,-39.97645569,-3.006967306
1810,3.963505507,1.174727798,9.626126289,-10.03303528,-39.99943542,-2.587506533
1811,3.711334705,0.897145689,9.526099205,-13.15625191,-38.19888687,-5.050066471
1812,4.225586414,1.311980486,9.392413139,-5.643432617,-26.23039627,-2.96619463
1813,6.338567734,1.145808578,9.267704964,-4.073322773,-30.82663536,2.991611958
1814,5.678224087,0.500754595,8.993108749,1.370333433,-23.192173,3.395123482
1815,6.360016346,-0.029560128,8.962173462,-0.498750299,-17.87533379,-1.408975363
1816,7.497586727,-0.260835856,8.777762413,-0.436600864,-14.65217495,-7.428541183
1817,7.862366199,0.066536963,8.687186241,1.41893208,-12.39810181,-10.61459732
1818,7.923671722,0.953722835,8.792412758,3.846992254,-9.184726715,-10.69048691
1819,8.405099869,0.955156684,8.725298882,3.776926994,-5.5837183,-9.44769001
1820,8.763072968,0.374810159,8.223444939,4.516736984,-3.374634266,-7.468467236
1821,8.431499481,0.328702301,7.706588745,8.691453934,3.924545288,-0.358097643
1822,7.374156475,1.840013981,7.334923267,8.217077255,15.66571999,7.384395123
1823,6.471543312,2.5468297,7.507006645,-6.524225235,37.95420837,10.87833786
1824,6.546664238,1.13307178,7.996599197,-29.44432068,62.77167892,17.68136597
1825,7.648382187,-0.797472715,8.93721962,-39.07207489,69.46997833,15.55097103
1826,7.275288105,-2.014487267,9.563965797,-36.85014725,71.4592514,3.611754894
1827,6.507122993,-1.950041413,9.868526459,-37.3572197,77.7155304,-7.897968292
1828,7.226072311,-1.040458441,9.920991898,-37.54605484,92.91436005,-13.50868225
1829,9.51391983,0.00287671,8.759971619,-29.28554726,93.74901581,-9.603779793
1830,10.86639786,0.585674822,7.722411156,-8.721493721,85.83072662,-1.713214397
1831,9.398347855,1.133819103,7.9885602,3.765363693,85.78728485,3.084662437
1832,8.323189735,0.753488958,8.537680626,-1.665682554,92.44346619,6.577955723
1833,9.206665039,0.795839071,7.825429916,1.835560799,83.47576904,10.88452339
1834,8.889557838,0.920973241,7.169877529,0.083287425,65.61403656,14.14077377
1835,7.23029232,1.020243168,7.413834095,-8.929857254,50.88912964,14.54291725
1836,5.343836784,1.345021605,8.48317337,-20.24680901,39.33975983,16.817976
1837,3.844983101,0.769982398,9.292227745,-27.54615593,17.94271851,21.29796219
1838,2.701819658,-0.117617637,8.437472343,-32.48212051,14.72840118,23.9410038
1839,1.871035099,-0.616812825,7.555399895,-41.99215317,67.31995392,23.26207352
1840,2.220953941,-0.673487365,7.875374317,-58.55545044,129.4663391,21.04468727
1841,2.731776953,-0.778560281,6.776479244,-57.86735916,161.4106445,21.15705299
1842,1.635652542,-0.745979071,5.915902138,-44.36183167,156.987793,19.95723343
1843,0.873457134,-1.44816494,5.393012047,-35.57509995,150.1488495,18.67316628
1844,1.108051062,-2.029930592,6.565719604,-27.16496277,155.5878296,16.88717842
1845,1.319537878,-2.038856268,7.67536974,-17.76762772,160.7996979,12.70645332
1846,0.947235942,-1.10829854,8.203838348,-14.91657448,151.5618286,10.15163898
1847,-0.328362584,-0.467142105,7.603841305,-14.35588837,140.9347534,9.981601715
1848,-1.617387891,-0.927243173,7.615243435,-8.739839554,122.450119,8.742407799
1849,-2.242450953,-1.481491566,8.207262039,-6.462175846,120.8180466,7.47056818
1850,-1.716400266,-1.683158517,8.802247047,-3.901159048,105.1332932,7.58925724
1851,-1.7753582,-1.919136643,8.767454147,-1.817929387,92.53112793,6.81911993
1852,-2.277035475,-1.506735444,8.312189102,1.438385248,81.31568909,4.822798729
1853,-2.419824839,-1.746271491,8.260480881,11.75264454,70.47916412,4.544395924
1854,-2.078979254,-2.102632523,8.195010185,2.538182735,62.17873764,1.871615887
1855,-1.743677855,-2.204084158,8.005703926,3.157592535,49.0922966,-0.998032928
1856,-1.970414996,-2.083723307,7.877696037,10.30688381,38.67850113,-3.177734137
1857,-2.287532091,-1.504306316,7.919327259,15.28990269,26.33633614,-2.535345316
1858,-2.436403275,-1.346249819,8.593866348,14.43814373,14.29318905,-1.525757074
1859,-2.456971645,-1.424433112,8.442239761,12.38198662,2.139730692,-1.885159731
1860,-2.701107979,-1.531952977,8.900732994,12.4609499,-4.101094723,-2.515655279
1861,-2.542459726,-1.176474929,9.255885124,12.92353725,-11.81511402,-2.460896492
1862,-2.266956568,-0.978631854,9.317159653,16.07632828,-20.25279045,-0.739350677
1863,-2.071350813,-1.07889986,9.474488258,18.83594894,-28.96295357,0.226878211
1864,-2.076882362,-1.072513223,9.450726509,19.95173645,-35.09334183,0.77581954
1865,-1.799173236,-1.167144656,9.592756271,17.97169685,-39.14570618,-2.01507926
1866,-1.703664303,-1.151487708,9.75094223,15.8753233,-45.60971451,-4.23104763
1867,-1.387188911,-0.883939147,9.884110451,12.4647274,-50.85131836,-5.18888855
1868,-1.040342212,-0.740873873,9.86762619,9.49939537,-56.69238663,-5.561979294
1869,-0.910540104,-0.681763411,9.950109482,7.6102705,-61.49289703,-5.324863434
1870,-0.855231106,-0.59291482,10.03680038,5.419176579,-67.14775085,-4.947338581
1871,-0.621630967,-0.609197199,10.19187832,2.770836592,-69.8846817,-4.490023136
1872,-0.445849061,-0.725742996,10.1508255,2.395322561,-70.47011566,-4.478843212
1873,-0.269758731,-0.857138574,10.15622425,1.827382326,-69.86325836,-4.771286488
1874,-0.051037692,-0.836536765,10.21043968,-0.431645483,-69.97515869,-4.703623295
1875,0.293042213,-0.90077436,10.16052628,-1.821108818,-71.71618652,-3.963663101
1876,0.365220159,-0.985231102,9.958350182,-0.458808959,-73.14196014,-3.404875517
1877,0.515228391,-1.236867666,9.764864922,6.542676449,-72.76306152,-3.168875694
1878,0.938435435,-1.082589626,9.588575363,17.30854416,-71.91671753,-0.625730336
1879,1.183650374,-0.581142724,9.912372589,21.16187859,-69.02874756,1.08640182
1880,1.289333344,-0.153605878,10.21914291,10.5710125,-67.12158966,1.953300953
1881,1.382457376,-0.179176286,10.38511181,-4.434928894,-70.00961304,2.797089815
1882,1.639104009,-0.672435403,10.51608086,-13.89587116,-75.78741455,3.522133827
1883,2.034398794,-1.087358713,10.56614113,-11.06199169,-70.58737946,2.800024033
1884,2.105346441,-1.309824586,10.65688896,-6.335705757,-61.04085541,3.061558723
1885,2.366917133,-1.212458014,10.77449417,-6.400244236,-58.37132263,4.53699398
1886,2.978338718,-1.019454122,10.820117,-6.759794712,-56.9343338,3.561928749
1887,2.792463779,-1.232150912,10.77738476,-7.371873856,-54.64374924,2.94528079
1888,2.562265873,-1.437529683,10.69605923,-9.165145874,-55.80815506,-0.317075968
1889,2.620032072,-1.850529671,10.82513142,-4.358324051,-51.89622498,-1.369152665
1890,2.811809301,-2.240920305,11.0849762,4.648379803,-49.36146164,-0.264210075
1891,2.648906469,-2.514400005,11.07100964,11.54968357,-49.43484116,-2.387739897
1892,2.36558795,-2.441165924,10.96648407,19.57034111,-49.24188995,-5.454393387
1893,2.439280272,-2.155723572,10.41263771,29.86223602,-50.37098694,-9.341693878
1894,2.815715313,-1.555155158,10.29889679,34.69292831,-50.77825165,-12.56233215
1895,2.842683554,-0.981876552,10.34442234,32.43605042,-44.74387741,-14.91343689
1896,2.705980301,-0.743617058,10.31945515,25.11776924,-33.82049942,-17.08366776
