PacketCounter,Acc_X,Acc_Y,Acc_Z,Gyr_X,Gyr_Y,Gyr_Z
640,10.58953857,-0.169502333,2.073858738,70.76888275,4.598324776,11.08406448
641,10.92441654,-0.456887811,2.3358953,74.8707962,6.912925243,11.61428261
642,10.4955492,0.16920577,2.25353384,79.58063507,0.862623572,14.44003582
643,10.54562378,0.451077819,2.396224976,83.14493561,-0.824455261,16.52753067
644,10.52922916,0.55153805,2.863196135,78.32829285,-4.421478271,13.19441414
645,10.50364494,0.693313301,2.66133213,81.24491882,-8.285493851,5.814226151
646,10.41774368,1.235983253,2.476531744,83.84738922,-5.779277325,0.097644433
647,10.17265034,1.535589457,2.058456182,83.00956726,-7.572732449,1.742685795
648,9.510810852,1.939199686,1.847547293,76.8757782,-6.083400249,7.423017025
649,9.065974236,2.755360126,1.60191524,67.5269165,-7.038476944,14.69419765
650,8.419888496,2.966734171,1.557393193,54.00933075,-2.092172861,23.03939438
651,8.053356171,1.702077389,1.821956873,45.14220428,-1.119656682,24.14840508
652,7.970326424,0.591194034,1.987992644,44.43739319,-3.974725246,15.56945038
653,7.879661083,0.307309687,1.528041959,51.64417267,-3.611874104,6.595929146
654,7.887451172,0.510130703,1.375550985,55.74977112,-1.112013102,3.870652437
655,8.004686356,0.038661711,1.534406066,54.90555954,-3.935100317,4.956847191
656,8.278004646,-0.976842225,1.511693835,55.99547958,-3.973956823,2.082956791
657,8.703229904,-1.279945493,1.369125366,69.52191925,0.384715706,-3.168216944
658,8.493564606,-0.337954015,1.544287086,79.97844696,5.641587734,-1.617171407
659,7.653986931,1.362471938,1.714583278,86.43508911,5.580598831,7.543185234
660,7.34210968,2.338906288,1.950159788,77.32136536,-4.482858181,14.72733593
661,7.596197605,2.442374468,1.739502192,61.9029007,-17.39360237,12.64790154
662,8.108190536,1.891581178,1.443677068,52.90042496,-28.76229668,8.980947495
663,8.741412163,1.56047368,0.982840121,52.00288773,-33.44307709,8.618900299
664,9.378333092,1.245564222,0.828376293,56.49690247,-35.19373322,8.617508888
665,9.754714966,0.788047075,0.795505762,59.71247864,-37.10347748,6.606175423
666,9.877971649,0.92285955,0.642763436,57.38686752,-38.05867767,4.050377369
667,9.721710205,1.269731045,0.404864907,54.94092178,-38.31630707,5.190822124
668,9.774155617,0.763802648,0.382704496,55.31923294,-37.15522385,4.668390751
669,10.01786327,0.924688816,0.206087381,56.43959045,-35.94734573,2.591617107
670,10.21433258,0.567510009,0.148797765,64.88407898,-32.37862015,2.540410519
671,10.48678207,2.029843807,0.267569035,61.9022522,-29.11120605,1.088154197
672,10.64055252,2.018671989,0.319312841,56.22714615,-27.5679512,3.983078957
673,10.34293365,2.024507761,0.106709525,46.7003212,-22.6087513,3.924011946
674,10.36314869,1.81160748,0.181113452,42.7816658,-20.67153549,3.849190712
675,10.79244232,1.544151068,0.403587401,37.73797607,-17.34501457,2.076197386
676,10.7534132,1.757305622,1.091350436,31.78192329,-12.3385582,0.767711818
677,10.41584396,2.144668579,0.239311099,33.85988617,-16.56897736,2.963321209
678,11.27124596,1.875247121,0.102242135,29.93120003,-31.07823181,1.775528669
679,12.06821728,1.672548771,0.3696329,23.32435608,-31.64185143,-7.532148361
680,11.81761837,2.482916594,0.558491945,18.58734894,-27.51876068,-11.39346218
681,10.54164028,2.873221874,1.19700098,9.690469742,-24.58619308,-7.131682873
682,9.76376915,2.870993137,1.132607341,4.265775681,-28.18117142,-2.651895523
683,9.879022598,2.307115793,1.668105721,11.78663254,-38.87245941,-5.138233185
684,10.23339844,2.124725342,2.765437126,10.61317539,-53.48712921,-7.262173176
685,9.767148018,0.976212323,3.448359013,8.096389771,-70.40467834,-6.349143505
686,9.364584923,0.067934826,3.058087349,12.10868835,-81.55513,-7.202144146
687,9.611353874,-0.263057202,4.377168655,16.7403698,-95.30813599,-9.19965744
688,10.51909542,0.625324607,3.689538479,23.15258026,-107.4232635,-13.86056423
689,11.98765755,1.89089179,2.378057003,23.30994987,-113.4733505,-22.79331017
690,12.91211033,2.821872234,1.460877419,11.75228786,-118.0481567,-26.18156433
691,14.07238483,2.827993155,1.388613701,11.09868431,-120.4518204,-22.58182335
692,14.81831741,3.043722391,0.806641698,22.86170197,-113.9416733,-20.56066704
693,12.96109009,3.129659414,0.002197921,32.75504303,-98.74289703,-14.68584251
694,10.9533062,3.223805666,0.546347737,21.15462303,-96.46329498,-0.369949758
695,9.889795303,3.813439131,-0.671320379,8.17688942,-88.98603821,10.36414814
696,8.583662987,3.386935234,0.63891989,-7.661641121,-78.64341736,18.94347191
697,8.093952179,0.239036113,-0.14333573,-37.3573494,-72.84626007,16.88356972
698,8.676801682,-0.48522982,0.522048533,-34.82839966,-63.58051682,19.40451813
699,8.556905746,-0.903413236,0.794006586,-3.399300814,-66.23822021,25.16034508
700,9.296225548,-2.067335844,-1.846114755,18.97330856,-73.21353912,16.44247437
701,11.28108692,-0.420553952,-2.733645201,38.66198349,-77.5359726,12.05059433
702,14.3501997,0.297331631,-1.80967617,57.08959579,-60.79732513,4.214513302
703,13.38260746,2.316816568,-2.935009241,71.36412811,-69.64812469,4.152559757
704,10.77475548,2.821563721,-3.497627735,61.81059647,-94.00167084,0.02953916
705,8.851442337,2.764787436,-2.742250919,65.62507629,-123.2828674,5.930305958
706,12.09779358,1.852362275,-3.096520424,92.87265015,-148.0825806,14.63360405
707,18.91814232,2.812858105,-3.181611538,98.31558228,-221.4125519,64.85494232
708,15.5965023,-0.327859133,-3.620196581,114.4021225,-360.6861877,107.2797775
709,7.042822361,-2.352193356,-7.98299408,153.2161255,-463.5424805,122.6577682
710,-3.872992516,-2.864387989,-10.50701618,217.1146088,-654.7915649,91.88521576
711,-4.763511181,-5.012557507,-11.82924461,190.8254395,-673.2332764,113.6007462
712,-14.00169373,-13.25076485,-13.27881622,90.04419708,-445.3714905,-49.61728668
713,13.3176775,-6.429436684,-12.73037529,-62.04597855,-153.1675568,-198.3058777
714,10.25123024,7.868946552,-12.16293716,15.17446899,-399.3617859,-192.6535034
715,16.33901405,16.30576706,-0.931101143,-43.40703201,38.89115524,-106.7844467
716,6.037101269,-1.136115551,3.568820953,-258.5304871,338.8942261,17.3139801
717,2.292685747,5.116988182,-1.937749267,-62.53028107,296.4029541,-74.4131012
718,-0.518705547,-0.249246806,-0.38771382,73.24816132,87.48879242,42.77448273
719,-2.041406393,-2.813852072,-3.21922493,87.0009079,-55.11690521,94.83125305
720,-0.623703778,-2.163649797,-4.327480316,40.9282074,-60.10434723,65.25017548
721,1.248329759,1.732055545,-4.916866302,-48.60997009,-67.72084808,15.33494282
722,1.32237184,1.096224308,-3.611442089,-85.8943634,-155.9589081,13.20430374
723,-1.043969274,-3.266987324,-1.082836032,-99.61235809,-197.6721497,39.50310135
724,-2.744309902,-4.910172939,-4.24625349,-53.29685593,-144.8580627,35.19836426
725,-3.250858068,-1.730333805,-6.735445976,-41.40499878,-68.22637939,17.35139084
726,-2.631654978,1.067352772,-6.314296722,-33.82859039,-30.12222481,9.849930763
727,-1.615974545,0.545614481,-5.655782223,-38.31531906,-23.57068253,8.980204582
728,-2.99062252,-0.988097012,-5.463732243,-36.61859131,0.341707468,18.504076
729,-3.641302347,-1.451462746,-7.228954315,-53.82156372,6.244385242,11.81416988
730,-3.371707916,-0.916046798,-12.74647331,-74.5716629,-4.94084549,6.746352196
731,-2.576141834,0.739177227,-14.2187891,-69.69515228,-21.322855,6.977057457
732,-2.671319962,1.270457864,-12.5954504,-63.81869888,-31.36620903,4.526863575
733,-2.959028959,0.624649286,-10.14130497,-75.98034668,-39.33319473,0.524632096
734,-3.244230747,0.027045719,-9.334144592,-94.55889893,-50.73656082,2.733504534
735,-3.585788488,-0.440864146,-10.25028992,-92.44322205,-68.43595123,6.272043228
736,-3.426545143,-0.897800028,-11.02943134,-70.65924072,-69.9131012,7.050686836
737,-3.648985386,-0.154996261,-11.51025009,-49.65109253,-74.13983154,10.07964611
738,-4.190619469,0.370579243,-10.77721691,-40.09934235,-87.25276947,15.44444275
739,-3.485861778,1.870368719,-10.18931389,-43.33023453,-101.7002335,15.36435509
740,-2.919689655,2.206831694,-10.306674,-44.63538742,-109.4118652,15.38794041
741,-3.057566166,2.133255005,-10.02725983,-37.66308594,-116.5359116,11.70372581
742,-4.247360706,1.758987427,-8.921508789,-29.26916122,-121.4520721,0.6806885
743,-4.203185081,1.919424176,-8.570656776,-15.00480366,-129.181427,-5.50146246
744,-4.496109962,1.335057378,-8.130181313,6.482951164,-129.3259583,-2.391662836
745,-4.875228882,1.277189016,-7.83382225,16.5453949,-127.7933884,-2.165424347
746,-4.698214531,1.919052601,-7.65648365,32.01256943,-121.3253479,-9.886182785
747,-4.146409988,2.786470175,-6.932047844,45.81231308,-117.3182983,-21.20931625
748,-4.125591278,2.758767605,-5.054558277,58.62480545,-127.7841949,-18.37914658
749,-5.391306877,2.889208794,-3.234134912,46.51090622,-123.2861862,6.750110626
750,-5.318421364,3.34147191,-3.666068316,33.73315811,-108.0649567,20.16620636
751,-4.457366943,2.49647522,-3.722941875,16.59975624,-62.67787933,4.306244373
752,-4.44522047,1.33572948,-4.602430344,20.3166523,-15.06520462,-16.19136238
753,-4.619456291,1.183941603,-4.250399113,45.06842422,57.18526077,-10.01432228
754,-5.010117531,0.563228428,-5.320313454,23.38207626,110.4385986,9.63664341
755,-4.686356544,-0.174925745,-8.81196785,-11.70270348,131.5423431,6.441843987
756,-2.531355858,0.2956976,-11.00396919,-6.663784027,157.7373962,-11.02918816
757,-0.142624676,1.630782604,-10.15458679,3.552157879,184.0026398,-12.3604908
758,1.672623515,2.653651237,-9.518263817,-0.732171714,180.3384552,-2.336248636
759,2.310446739,2.344458342,-10.4102335,-33.82523346,187.2766266,2.827075005
760,1.225798488,1.882065773,-9.722240448,-89.22373199,214.2668304,0.912785828
761,-2.169698954,0.589924216,-13.43698406,-118.6640625,184.3019714,1.850427389
762,-4.231793404,-1.31982255,-20.76264763,-73.16885376,122.9385605,-1.582671762
763,-4.545867443,0.432777137,-22.99701118,58.61872101,123.0643311,-5.002385616
764,-3.882551193,0.839361548,-11.3342638,56.90591812,132.0405426,-22.1320076
765,-4.113656044,3.31925869,-8.809370995,6.501966476,117.6806259,-22.90158272
766,-5.090224743,3.714783192,-11.69118881,3.743050814,71.43416595,-11.28231907
767,-1.915015221,2.866811514,-11.37899017,-6.022796154,9.578285217,-16.55503464
768,-1.002437234,1.607746005,-10.92636681,-8.132837296,-17.76500702,-20.99171638
769,-0.904724121,1.74728632,-10.88071918,4.152775764,-24.74624062,-21.48948288
770,-1.112752438,1.078034759,-9.43072319,8.82894516,-40.54379654,-17.3883667
771,-2.533075571,1.061834812,-8.234228134,-2.115677357,-46.93631744,-10.29171467
772,-4.408705711,2.482958078,-8.075598717,6.127336979,-65.80988312,-6.811007977
773,-4.312595844,2.514204979,-7.944108009,9.661291122,-93.05944061,-11.60689926
774,-2.957404137,2.155567169,-9.10550499,11.53417969,-109.9362183,-16.45665169
775,-2.488603592,2.112346411,-9.107903481,19.70537186,-122.8968124,-10.09469891
776,-1.662965178,2.116642952,-9.541938782,30.8044548,-131.0784912,-8.745300293
777,-1.258099079,1.258726239,-9.450973511,52.86668777,-136.9120026,-18.00191116
778,-2.698869228,-0.501943648,-9.888550758,73.61016083,-154.2190552,-23.65160942
779,-3.829337597,-1.381301641,-9.070324898,92.71209717,-166.2565918,-19.07468796
780,-4.056610107,-0.613123953,-4.944703579,73.25644684,-165.0833588,-16.39260674
781,-4.515924454,0.781347156,-2.173225641,59.67797852,-163.1037292,-15.53014278
782,-3.117692232,1.177192926,-1.834401727,69.19799805,-147.9881744,-13.71376038
783,-1.713354826,1.71116066,-2.533521891,61.76576233,-116.6032944,-6.21947813
784,-2.499330997,1.509205222,-3.340324163,19.15117645,-79.30339813,8.733374596
785,-4.937484741,0.87497896,-4.828466892,2.953439474,-25.64370346,6.08704567
786,-5.543812752,0.985732615,-5.539321899,24.85364914,57.78921509,-2.633854866
787,-4.420624733,0.071981959,-6.808419228,14.40575218,104.1541824,-1.59085393
788,-3.501400709,-0.38662082,-8.713386536,-6.897956848,116.0326767,2.779078007
789,-2.674602509,-0.417993635,-9.094633102,-7.535147667,152.7797394,1.45050931
790,-1.235839844,0.200512633,-9.820989609,-4.932313442,199.2453003,-6.094678879
791,0.873514533,0.989642918,-10.14110851,3.611773014,207.3448181,-9.591320038
792,3.2441113,1.01437366,-10.43257904,9.087704659,190.6760254,-8.677573204
793,4.66862011,0.533990443,-11.58074856,-4.526968956,169.7905426,-11.24365044
794,4.757646084,0.264970958,-13.15260792,-33.83501053,170.1687469,-12.50079155
795,3.573721886,-1.324286699,-12.45035172,-81.03588104,150.9488831,-1.653701305
796,0.292229265,-1.730197549,-14.17133999,-76.00814819,136.2703552,5.381082535
797,-3.451495171,-0.562009454,-20.44700813,20.40267754,124.3024368,9.472511292
798,-5.735308647,0.393744946,-19.96559334,92.55622101,106.5364761,4.111325741
799,-5.257160187,1.033520937,-12.77445602,37.72239304,103.3996429,-8.691313744
800,-3.0595119,1.858396888,-10.12169647,-31.85361862,76.9678421,-11.71850014
801,-1.701561451,0.903539896,-12.07587814,-47.53485489,53.95239258,-0.729437292
802,0.840874374,-0.619953096,-12.04270458,-44.22861099,25.89970779,-0.134058118
803,1.695792198,-0.441515952,-11.57992935,-0.029211285,3.465174437,1.255041599
804,0.003089889,0.344287723,-10.01236153,15.84621143,0.33377853,2.443485498
805,-1.103554487,0.832096517,-9.087995529,3.575731993,3.981667757,-0.521858871
806,-1.432751417,1.812848926,-7.740013123,-12.46526241,-6.436001778,-4.570090294
807,-1.746560335,2.705882311,-8.818389893,-18.31574059,-34.47177124,-0.797045887
808,-1.265658379,1.134928346,-9.390571594,-27.52255249,-50.74991608,3.186289549
809,-0.721437335,0.227338761,-8.886274338,-28.70392799,-56.022789,1.653201222
810,-0.465321124,0.409833074,-9.101774216,-8.440585136,-64.35092163,-1.666041017
811,-0.148410395,-0.264028549,-8.80728054,1.410642862,-77.28594971,-7.722072601
812,0.041715488,-1.336093426,-9.133142471,9.835424423,-95.1204834,-12.07610512
813,-0.379908264,-0.952549338,-9.706604958,45.75349045,-107.6038742,-11.57268715
814,-1.096838951,0.038115323,-9.760948181,71.93714142,-109.0424271,-11.20508003
815,-1.321978807,1.071749091,-9.830082893,79.18946075,-107.6983185,-2.613927841
816,-1.716076136,1.414280415,-8.222233772,63.22283936,-112.0444946,7.093820095
817,-2.082108259,1.56301403,-5.440453529,21.34405136,-132.3755035,0.091295853
818,-2.618890285,0.977734923,-3.879610062,10.73892307,-154.2088318,-7.647778034
819,-2.65656805,-0.955680847,-3.991332293,29.93361473,-146.0647125,-6.481648445
820,-1.207305908,-2.515025854,-5.184537411,60.65789413,-108.6094208,-8.176368713
821,-0.997454345,-2.66361475,-4.841879368,73.19338989,-53.63933563,-10.04768276
822,-2.270499468,-1.10705328,-5.437695503,51.90159988,-6.172155857,-3.865300179
823,-3.538789988,0.734860599,-6.623849392,24.77558708,14.89549828,1.210517168
824,-3.099893808,0.459830523,-7.745634079,3.035500765,22.23429108,-4.768709183
825,-2.455382586,-0.753786445,-8.64151001,-17.42886353,46.32582474,-14.21632195
826,-2.135546207,-1.187930942,-8.144820213,-22.62572289,91.07250977,-7.14985466
827,-0.595515013,-0.964004636,-8.296141624,-34.3040123,126.3534622,1.293442607
828,1.74227798,-0.180415913,-9.92048645,-38.44196701,175.2042694,-0.207947493
829,3.485146761,0.390963584,-11.15030766,-32.5875473,208.1701355,-9.250926018
830,4.98797369,0.19622004,-12.04933167,-21.07390404,202.9044952,-14.73441505
831,6.015172958,-0.181396976,-13.19432449,-6.887885094,189.2015076,-12.26814461
832,5.527312279,-0.988547206,-13.65405273,-13.85926342,176.6811981,-7.617882729
833,3.787034035,-1.455417871,-12.90269375,-35.67933273,142.1107635,0.674221992
834,1.730798483,-1.971642017,-12.42422676,-54.46660614,111.2517395,1.376865745
835,-0.173725694,-1.075422764,-14.17668819,-31.82421494,124.1298523,-5.196401119
836,-2.070412159,0.909843385,-18.65273094,27.03665924,134.7392731,-8.580123901
837,-2.76935792,2.024263859,-14.84545135,21.85280609,110.6032333,3.078714371
838,-1.70631361,2.180653811,-11.46544075,-32.42485428,86.95410156,14.56883335
839,-0.602067053,0.435448676,-11.92538071,-28.6926136,57.68697357,12.1026516
840,1.78345108,-1.314411998,-14.06385231,-19.96363068,23.75512314,-2.466332197
841,3.573315144,-1.023738384,-13.66769695,7.874382496,10.45921803,-11.73325348
842,3.027360439,-0.847482204,-9.581749916,5.283257484,25.11561775,-16.44863319
843,1.676079154,1.199762464,-8.385677338,-14.94905281,24.49825478,-17.61471748
844,1.452477932,3.047616482,-5.918408394,-48.78427887,8.24355793,-15.42609692
845,0.314863533,3.367315292,-7.921438217,-70.4050293,-30.94794273,-4.516222
846,-0.326284468,-0.209427729,-8.792778015,-58.35449219,-53.01126099,6.919442654
847,0.056269921,-2.137036324,-9.185801506,-19.00049591,-56.60555649,13.85575104
848,1.085644364,-1.654321671,-8.945849419,16.48539925,-54.02622223,7.190572262
849,2.08242631,0.249431685,-8.874486923,19.61796761,-61.41460419,-12.10094261
850,2.447837353,1.205549836,-9.217998505,8.494633675,-72.72998047,-22.61991119
851,1.950079083,0.508966863,-9.290106773,7.304186344,-82.79886627,-11.18526649
852,1.318789601,0.062947571,-8.681746483,9.60464859,-84.36214447,6.038860321
853,0.758593619,0.13791734,-8.214491844,9.684093475,-84.44758606,11.68134594
854,0.429976404,0.491084665,-8.969926834,11.60243225,-85.2063446,0.063252211
855,0.768349588,0.434183657,-9.376199722,20.2533493,-83.67958832,-15.36599636
856,0.923639297,0.35733515,-8.670031548,23.0691967,-88.52610779,-20.64022446
857,0.88442421,0.963879406,-6.976078987,14.28848839,-103.2931519,-11.09779835
858,0.042699948,1.944552302,-6.08474493,1.502607226,-125.1298752,5.353522778
859,-0.979715645,1.308854699,-6.354487896,-10.39787674,-143.9484406,16.11846924
860,-0.955873311,0.157519266,-6.376621246,2.235849619,-125.0150452,5.968619823
861,-0.683526278,-0.639708221,-6.05734539,13.06039333,-59.33335495,-12.92704582
862,0.114467479,-0.542198002,-5.954329014,2.201345921,-19.58330536,-15.70608711
863,0.123487458,0.576965511,-5.809560776,-8.887817383,-20.85629845,-8.80286026
864,-0.716185212,1.385755181,-5.570891857,-7.206511974,-27.74329376,-0.002407601
865,-1.547405243,1.710448503,-5.920714855,-6.112789631,-22.16998291,5.746380329
866,-1.381484985,1.633886218,-6.970522881,-1.586950779,-6.515899658,10.60698605
867,-0.872748077,0.897867918,-8.502685547,5.211215973,21.22749901,11.46089458
868,-0.6816113,0.304382533,-9.401492119,10.71495152,57.04624557,6.551454544
869,-0.201294661,-0.010461437,-9.793814659,20.97021294,93.3915329,-1.439992547
870,0.840153217,0.117584065,-10.09191036,26.77149963,124.9512329,-6.513698578
871,2.515664339,-0.01830891,-10.90961361,27.37157631,147.470108,-5.206526756
872,3.917419672,-0.666782081,-11.43335342,30.6350174,149.5840302,-3.238326073
873,5.516846657,-0.709710062,-11.94864464,54.97119522,141.3274994,-3.094367504
874,6.637016296,-0.868065894,-11.85984993,64.82620239,128.7493439,-5.90886116
875,5.949433327,-1.26087141,-11.37332439,58.24479294,110.1359329,-12.20222473
876,4.032956123,-1.991832256,-10.6971817,24.4352951,103.3721542,-18.24625206
877,0.9453547,-2.227543592,-10.84381294,-20.82082176,87.53987122,-27.14947891
878,-0.368836284,1.19476378,-14.51369953,3.75253582,99.60258484,-16.67436981
879,-1.476200581,-0.122282282,-16.28623772,109.62323,102.4410706,6.943406582
880,-2.443315506,-4.295774937,-11.60325527,114.2197418,51.72769547,-5.324484348
881,-0.811140478,-3.428626299,-10.39550972,91.38140869,32.21105957,-20.59539604
882,2.189256907,-1.749640822,-9.838274002,94.82113647,47.67290497,-18.20470238
883,4.13147831,-0.62976408,-9.531557083,106.6676407,23.85071373,-8.769155502
884,3.690356493,0.480765462,-9.267537117,95.92641449,-6.460811138,-10.55313873
885,1.991990924,0.301172644,-8.174310684,38.20492935,4.397006035,-20.46249199
886,0.694699466,-0.44930616,-6.385651112,-28.40045738,16.18959427,-27.3698616
887,0.455152988,-0.51534313,-6.303632259,-47.10477829,-1.356954694,-22.7014122
888,1.207975149,-1.748874068,-6.967904091,-15.29084015,-13.84360409,-13.90625381
889,1.726994872,-3.003255844,-6.452299118,14.79022694,-35.7109108,-0.593449354
890,2.073244095,-3.115247488,-6.427140713,40.49635696,-42.85510254,3.034853935
891,2.561321735,-2.325467587,-7.324797153,61.83082199,-48.91390991,-0.338139862
892,2.099769115,-1.168892622,-7.864154816,60.02814102,-60.85577774,-3.158222675
893,1.345065951,-0.255339026,-8.446180344,47.09126282,-82.23235321,2.61711812
894,0.929434597,-0.410014719,-8.074489594,31.19292068,-104.8467102,11.38276291
895,0.8134799,-1.954722524,-8.053359985,42.46057129,-122.7869949,17.36739349
896,0.905836582,-3.774410486,-7.260007858,84.60127258,-117.9224625,15.56459808
897,1.123002768,-5.367652893,-6.62451601,103.9371185,-57.15337753,9.033896446
898,1.300220013,-7.05747509,-5.761601448,68.073349,-2.25666976,6.7222085
899,0.982230306,-7.00038147,-6.552781582,26.29030037,-18.19072151,8.906971931
900,-0.165958315,-5.501688957,-7.231972694,16.14603996,-40.16161728,4.035263062
901,0.016416308,-4.490677834,-6.968871117,56.18911362,-51.47668457,-10.09496975
902,0.917593837,-4.411460876,-5.186192036,101.5157623,-58.86454391,-14.84433842
903,0.643817961,-5.836362362,-4.273488045,108.3750839,-54.30660629,-10.43160439
904,1.0386554,-7.070747375,-9.277893066,80.47547913,-22.5830307,-12.98029232
905,0.591596127,-7.621334553,-8.059846878,102.2735977,-11.73053074,-18.16996574
906,0.587699771,-7.0555439,-9.311800957,129.3239594,-1.137433171,-24.33375549
907,1.178256392,-5.240997314,-9.710704803,145.9461975,5.785694122,-28.24717522
908,1.561932445,-4.755391598,-8.827537537,138.5497437,2.172401905,-21.14717484
909,1.857053161,-5.361250401,-8.384243011,130.5428467,2.919935465,-13.38856506
910,1.62094295,-5.249531746,-8.496192932,121.6734314,7.875464439,-13.34846497
911,0.939455986,-4.776949406,-9.019402504,110.939209,6.088956833,-12.41879177
912,0.064473167,-5.400793076,-8.084776878,92.77178192,-6.112267494,-5.100060463
913,-0.296548665,-5.785912037,-7.072888374,75.42392731,-8.484885216,-0.272748798
914,0.21488978,-5.562197685,-5.39574194,48.03876114,-2.735063314,13.00282955
915,0.53204751,-5.781888008,-5.720072746,17.95913696,-6.043595791,27.00617981
916,0.348238945,-6.17217207,-6.777030945,0.598474205,-6.287574768,26.41908646
917,0.388069212,-6.114369869,-6.526658058,-18.11047745,-1.240036607,25.41254807
918,0.816116691,-5.7862463,-6.361878872,-55.22572708,-11.93842697,39.62522507
919,0.720474422,-5.027069569,-6.160488605,-92.97648621,-25.34309387,45.86963654
920,1.122184157,-4.433372974,-5.865649223,-118.2976456,-15.05686569,30.67521286
921,1.145063639,-4.212359905,-6.358530998,-113.6251907,-3.905266047,16.1079464
922,0.822049737,-6.197570324,-6.588524342,-98.9985199,7.407065392,16.03340912
923,1.10383749,-6.816897392,-7.636953354,-87.53065491,18.12527466,13.95522594
924,2.079401493,-5.928319931,-8.097716331,-77.96902466,24.17077446,8.31811142
925,3.584635019,-3.99530673,-8.275048256,-83.35504913,13.31807899,0.191639021
926,3.658816576,-2.88402319,-9.238189697,-92.18807983,6.660610676,2.034983873
927,2.371408224,-3.147966623,-8.829005241,-106.2568054,6.450235844,10.11841583
928,1.0197891,-3.997525215,-9.887366295,-119.3668289,6.384276867,9.94571209
929,0.430378646,-4.662735462,-11.30986214,-104.0216599,4.211863041,5.437413216
930,0.021219809,-5.260762215,-11.355793,-78.73706818,7.252830029,0.125261649
931,-0.075606719,-5.01278019,-10.27201557,-53.19681549,9.863463402,-7.460397243
932,0.193853036,-4.520312786,-8.97532177,-26.85196304,11.79508495,-10.90088463
933,0.402830601,-4.620342731,-8.329848289,-16.20947456,12.98200703,-9.868373871
934,0.143921658,-4.591635227,-9.037805557,-8.938878059,9.6734972,-8.047644615
935,0.091434479,-3.812062263,-8.945278168,-9.950208664,5.232697487,-11.42713928
936,-0.026055718,-2.972254515,-9.567375183,-11.36061764,3.379376173,-16.53896332
937,0.48293972,-1.616216779,-9.867170334,-15.3326807,3.023103237,-14.32356358
938,1.293020368,-2.018541574,-9.253601074,-34.36787796,4.943009377,-3.215739012
939,1.346346974,-2.268909931,-10.02543354,-50.09738541,7.314983368,6.463417053
940,1.04540205,-2.259456873,-9.751838684,-54.27285767,7.067369938,11.53555584
941,0.537400544,-2.166541815,-9.884320259,-62.29207611,14.68971348,5.253253937
942,1.345179439,-1.313393474,-9.73234272,-69.8635788,18.41637802,5.129389763
943,2.113020182,-1.236624002,-10.11436558,-81.21599579,15.33018875,14.06866932
944,1.981511593,-1.714419842,-10.20489407,-92.87783813,21.49811363,17.59072876
945,0.915166914,-2.272793293,-9.181402206,-125.7036667,22.17358589,19.8365345
946,-0.523181379,-1.37469995,-8.930576324,-163.4837189,14.01844025,23.32081985
947,-0.537038922,0.378392011,-9.212546349,-192.0349426,4.066666603,29.67165756
948,0.692003191,1.341322184,-8.621582985,-217.681427,-0.37480402,38.56454849
949,1.352578282,1.989740968,-8.687978745,-229.1352234,6.037932396,48.28209686
950,1.101698399,1.749411821,-8.865273476,-224.8858948,18.49439621,47.49464798
951,-0.062967747,1.820015907,-8.246980667,-207.7129517,12.86920643,38.18595123
952,-1.037329793,2.275872231,-7.173319817,-207.2744751,1.571432948,23.60508919
953,-0.969131947,3.086362839,-8.300769806,-231.3850403,-9.8530159,15.85058117
954,0.405242532,3.673642874,-9.658563614,-240.5396729,-26.59291077,17.14988518
955,0.708524287,3.089978695,-8.359302521,-255.9938049,-38.25657654,16.26211166
956,0.460142583,3.035026312,-7.945820808,-261.6033325,-39.57619095,12.23885822
957,-0.073829338,3.749086618,-8.094482422,-249.7718048,-41.58727264,5.644413471
958,0.205163509,4.687412739,-7.328503132,-240.7120209,-30.21874046,2.760642052
959,1.212507367,5.271896839,-7.338071823,-229.4580536,-19.86390495,0.891674399
960,2.419937134,5.70537281,-7.412087917,-213.8827515,-28.16798782,-0.307095438
961,2.919818878,5.903560638,-6.976554394,-190.7959747,-41.4473114,2.152530432
962,2.061014175,6.135801792,-6.407186508,-167.5305023,-47.45151901,1.877028584
963,0.372586519,6.511735916,-5.977617741,-156.9161377,-46.60007095,-4.069345951
964,-0.421053886,6.545915127,-5.771865845,-133.3228912,-51.89008713,-9.203027725
965,-0.694013357,6.213418484,-5.682227135,-88.63022614,-58.25456619,-16.23282242
966,-0.608998418,5.822305679,-4.466657162,-44.3825531,-51.25016785,-20.15733147
967,-0.277080655,5.59125948,-2.987403154,-10.17343903,-28.85754204,-28.03922653
968,-0.917419314,5.102412224,-3.160850048,34.92589951,-4.906620979,-39.02789307
969,-0.831003964,6.018182278,-4.300499916,76.38179779,-10.02119923,-40.93081665
970,-0.17181164,7.276614666,-5.048317432,94.9037323,-18.90632057,-46.86650467
971,0.063586354,7.420493126,-5.996683121,118.1377792,-19.57560158,-44.21327209
972,-1.054486394,6.061982155,-6.860972881,145.3386078,3.323492289,-36.32806396
973,-2.216632605,4.806063175,-6.464131832,177.0273438,24.48173714,-31.98194885
974,-1.070104122,5.465623856,-7.3412714,212.4803772,45.14962006,-25.04159546
975,0.206951857,6.633637428,-8.416189194,239.5169525,32.87530899,-13.857337
976,0.205180421,7.407475948,-8.682113647,234.1624908,1.652383685,-6.887076855
977,0.462097883,7.549097061,-8.900798798,212.8244019,-8.518415451,-2.645932674
978,1.103813052,7.11813879,-9.269342422,193.6669159,-9.550667763,7.374983788
979,1.243012428,6.341132164,-9.155455589,158.8799896,-11.2590704,18.17238045
980,0.589891851,5.898510456,-9.547337532,134.5305939,-8.943110466,22.32772255
981,-0.293498456,6.045932293,-9.764698029,118.4174347,-5.974625111,25.63145065
982,-0.362071097,6.20690012,-10.43413639,114.2828827,-1.752161503,29.50190926
983,-0.156181201,5.646162033,-10.57207203,109.0476532,5.501542091,28.9707222
984,-0.12810044,4.610630512,-10.54793739,91.41789246,15.82944679,23.33102226
985,0.077556066,4.339699745,-9.954228401,49.69670105,32.02235031,17.46474648
986,0.07871969,4.430629253,-9.866330147,8.148933411,31.43791008,18.34103203
987,0.151468813,4.064729691,-9.861465454,-23.72806168,14.25288677,23.5377121
988,0.689148724,3.664155483,-9.253631592,-52.39592361,6.170508862,21.70244408
989,1.525441408,2.900953293,-7.446135044,-72.67636871,16.33096313,11.58281326
990,1.771983027,1.119684935,-6.130339146,-75.31571198,41.33092499,1.977371216
991,1.135424137,-0.489539832,-7.002471924,-32.56825638,52.55213165,4.570782185
992,0.783025563,-0.55980885,-8.620865822,49.71113586,35.19332123,16.81620979
993,1.409734488,0.031940922,-8.91296196,99.51708984,23.18704224,18.62729645
994,2.35847187,0.738362014,-9.607802391,101.0511856,13.1521616,6.156283379
995,2.118735075,1.809002876,-10.84998608,80.27528381,31.93413353,-3.609858751
996,1.631999731,1.324857831,-10.67999935,45.07318878,73.79066467,-13.01965618
997,0.558802187,0.624751627,-9.238991737,27.94056892,106.3522186,-26.29406929
998,-0.545499325,0.336993158,-8.154473305,34.96424103,112.7265396,-35.45017242
999,-0.336228788,-0.060788266,-8.901460648,81.07530975,97.81231689,-37.29158783
1000,0.68692261,0.227240488,-9.882885933,140.8240967,60.76193619,-36.02052307
1001,1.510931253,0.383475244,-9.224862099,166.4239349,41.42247391,-32.3439064
1002,1.664548159,-0.414188802,-6.940269947,163.3459473,46.77539825,-30.95425797
1003,1.132161379,-2.071325779,-5.848892212,165.346817,52.84137726,-31.2664547
1004,0.024326507,-2.440805197,-8.179439545,194.1113739,20.11092186,-24.9656601
1005,-0.399852812,-1.42616415,-9.121776581,224.0813293,-21.05561066,-9.48855114
1006,0.409789354,-1.536406875,-7.693418503,232.1853943,-34.9080162,1.261292577
1007,1.079327226,-2.791988373,-7.662105083,201.5989685,-33.21053696,4.693532944
1008,0.547739387,-3.149059057,-7.35977459,205.473465,-36.59019089,0.995686293
1009,-0.004716534,-4.963647366,-7.267813683,246.4606781,-53.59009933,-3.009309292
1010,0.453769088,-7.467700958,-8.483488083,257.0073853,-46.78793716,-1.309444189
1011,0.678296745,-8.383122444,-8.449298859,257.7655945,-29.41771126,1.273458123
1012,1.032375574,-8.05935955,-9.891684532,258.5865479,-16.35622597,-2.64590621
1013,1.468723655,-6.247625351,-10.65458393,273.8636169,-12.3388319,-0.083993495
1014,2.222589731,-5.006608009,-9.476406097,267.5401611,-0.804435492,6.948866844
1015,2.879486799,-4.787433624,-6.986964703,249.0640869,8.818164825,10.44672108
1016,3.440692425,-5.077353954,-5.740130901,224.8411255,16.54463196,6.353920937
1017,3.18604517,-5.988184929,-6.178827286,179.0320587,11.62598896,3.740404129
1018,1.626179695,-6.35120821,-6.828375816,134.6571198,-0.195456639,9.800790787
1019,0.387056261,-6.289286613,-6.182977676,88.74235535,-6.420732021,16.48090363
1020,-0.056601502,-7.183171272,-5.510597706,45.12896729,-6.864490509,22.12568092
1021,-0.429980159,-7.622449875,-4.774546146,5.870603085,-0.650647879,29.73432732
1022,-0.339720845,-8.549210548,-4.630410194,-23.58121109,-1.300435185,34.44529724
1023,0.999710143,-8.3689394,-5.554234505,-50.75546265,-3.482287169,28.76533127
1024,2.314893961,-7.219285011,-5.995760441,-84.66065216,-13.74693108,28.52649117
1025,2.287721872,-5.397690773,-5.279017925,-119.8226624,-9.301849365,29.20887756
1026,1.297103047,-4.18704319,-6.864902973,-139.1656952,-5.4306674,26.52726936
1027,0.36054647,-4.884250641,-5.2973423,-134.7075653,-1.408522606,24.21559525
1028,0.259359539,-6.567313194,-7.462605,-134.6734161,3.277861118,25.09519196
1029,1.155384898,-8.036114693,-8.079257965,-143.8240967,2.842568636,21.86934471
1030,3.418763638,-7.359553337,-9.184270859,-162.1360931,-5.745826244,4.739839554
1031,4.049255371,-6.566105843,-8.692825317,-159.9395752,-14.46265125,-5.787236214
1032,3.294219017,-6.52183342,-8.311890602,-155.2296295,-13.47787762,-0.714066327
1033,1.891260147,-6.142005444,-9.243575096,-145.270813,-1.075198889,5.797130585
1034,0.239027366,-6.230364799,-10.16726017,-126.1795197,8.74822998,7.099843979
1035,-0.574157,-6.099619389,-9.81722641,-98.59493256,15.43520832,0.410438657
1036,-0.460585296,-5.744898319,-8.387206078,-75.21718597,12.96082497,-7.73217392
1037,0.046060991,-5.768119812,-7.249914169,-60.55397797,8.925065041,-10.7004776
1038,0.596385062,-5.746973038,-8.065567017,-38.10092545,13.43623734,-16.18930626
1039,0.526558042,-5.518725395,-9.199160576,-3.700526953,19.6264782,-19.95055199
1040,0.891089141,-4.381246567,-9.652103424,23.36116791,25.08885574,-22.31835747
1041,1.101675034,-3.586721659,-9.698768616,29.73694992,18.44831467,-21.49822426
1042,0.995040834,-2.67465806,-8.962334633,16.29711914,9.836453438,-19.14553452
1043,1.083762765,-2.33640337,-7.980187416,-9.596829414,8.729024887,-15.08379364
1044,0.708519936,-1.758668065,-7.855461121,-25.48797417,8.926988602,-12.31465626
1045,1.179402351,-0.837623119,-8.184737206,-22.27085686,12.16734314,-8.549752235
1046,1.015806556,-2.247463226,-7.841875553,-28.38212585,15.42074871,-8.820478439
1047,1.293194532,-3.140584707,-7.88508606,-19.45280266,14.97062778,-10.30265713
1048,2.167122364,-4.359152794,-8.052303314,-2.711503029,9.247452736,-9.586647034
1049,3.023224831,-4.931026936,-8.157282829,2.03721571,7.586286068,-9.244805336
1050,3.071544886,-4.930011272,-8.888566017,0.423083603,9.98108387,-9.270810127
1051,2.09419322,-3.457818747,-9.610981941,-12.19167233,22.2980938,-13.24379349
1052,1.419113278,-1.216798544,-10.68301392,-35.24269485,29.27561188,-14.17963028
1053,1.617815495,0.222698957,-10.41748905,-69.9108429,28.436903,-1.075453877
1054,1.458977461,0.122105323,-9.687618256,-125.7240982,9.349621773,14.1589489
1055,1.608174443,-0.982528806,-8.83374691,-181.476059,-15.95234108,20.82486916
1056,1.595876813,-1.999974251,-8.372015953,-214.884079,-14.69328117,24.68413734
1057,0.421812743,-2.436290503,-7.398050308,-228.0269012,7.201011181,30.29257584
1058,-0.300166488,-1.681739807,-7.520390987,-239.6610413,20.43041039,34.11958313
1059,-0.525994241,0.028960735,-8.939757347,-246.8466797,11.74255848,33.7453537
1060,0.013684368,1.404473186,-10.01603985,-236.9897308,-8.261831284,26.46665573
1061,0.694190681,2.230658531,-10.05662537,-245.0475464,-27.83031654,21.40639877
1062,0.642421544,2.518672228,-10.19578934,-273.4685364,-36.00387573,19.95695686
1063,0.904745638,2.443652391,-9.910747528,-285.8920898,-41.29494476,16.56217194
1064,1.111323357,2.059188604,-8.810735703,-314.8562317,-31.53944397,12.53728294
1065,1.238597155,1.837570906,-8.073931694,-337.3618164,-11.36289024,9.754412651
1066,0.960337341,2.358584881,-8.800459862,-300.1842346,9.414515495,7.791550159
1067,0.630342364,2.962774992,-7.910964966,-261.9520874,1.460398674,0.132827565
1068,1.87153542,4.266218662,-8.55016613,-242.6600952,-7.181708336,-10.57102585
1069,2.363713026,6.087190628,-8.851768494,-211.0232391,-27.48805428,-9.493290901
1070,1.366826296,6.49067688,-8.076974869,-199.0329742,-40.38072586,-10.04690742
1071,0.988247573,6.637065411,-8.143339157,-184.4349823,-42.35920334,-12.42636013
1072,1.151760101,6.562398911,-7.613970757,-149.2793884,-58.65044403,-14.39630795
1073,1.205341339,5.982392788,-5.957618713,-125.3123779,-71.63905334,-18.13772964
1074,-0.062605828,5.712198257,-4.317697048,-116.5892258,-64.66294098,-6.477550983
1075,-0.482116044,5.459245205,-3.57555151,-108.1463013,-53.04650116,-6.742299557
1076,0.532936931,5.22586298,-2.496287107,-46.3061409,-35.13855362,-23.91840744
1077,0.188477024,5.668494225,-3.536262512,40.31210327,-29.65282249,-39.47406387
1078,-0.356150061,6.889775276,-4.34090519,97.67113495,-43.58403778,-43.29201889
1079,-0.803894043,8.363596916,-4.681309223,116.0407104,-47.33935165,-37.61525726
1080,-0.426894784,8.187927246,-5.567145824,116.9045868,-29.08689117,-30.86351204
1081,0.108687177,5.329950809,-6.486160278,107.4279175,-17.83525658,-36.15197754
1082,0.585251272,3.246973991,-5.994041443,149.7431946,16.44299889,-54.0029068
1083,-0.641460359,3.648679256,-7.499344826,204.4643402,51.34391403,-47.89382553
1084,-0.988524199,5.230739117,-7.736402035,214.3556061,36.92409134,-38.15454865
1085,-0.492257267,5.353422165,-9.039484978,222.2054749,22.71623611,-27.18640709
1086,0.16271168,4.170536995,-9.825889587,224.5037994,22.38580132,-16.49999809
1087,1.488517284,4.264398098,-10.43871117,213.8629608,26.82110023,-9.070318222
1088,2.449686766,5.58048439,-10.61771774,190.2707977,25.89933395,-3.200069904
1089,1.959399581,6.713083267,-10.49795055,146.7286835,25.30680466,0.036059089
1090,0.761717916,7.173788548,-10.81224918,106.783638,40.06807327,7.917335033
1091,-0.360030234,7.100616455,-10.89585209,88.37000275,34.22502899,26.23030281
1092,-0.304468513,6.226471424,-11.01429844,73.52229309,27.8887825,39.71204376
1093,-0.216791391,5.13465023,-10.62660313,60.15589523,36.36340332,38.39022064
1094,0.293704271,4.401074409,-10.30486012,47.03369904,49.60889053,33.58630371
1095,0.003455505,4.353572845,-10.14865208,32.33792114,52.52639389,36.603405
1096,0.098082408,5.287586689,-9.804327011,16.95499802,46.37915421,43.55724335
1097,0.628176033,5.732440472,-9.620153427,-8.50178051,29.02743721,42.06674194
1098,1.941582799,4.977291584,-8.478344917,-42.98099518,17.49506378,30.34421158
1099,2.515559435,3.027868509,-6.573552608,-75.98195648,32.90399551,18.80740356
1100,2.460506678,1.450787306,-7.447158337,-59.63876724,44.95805359,7.229987621
1101,2.146526814,0.455511153,-8.028119087,-4.29719162,34.75547409,12.22777367
1102,1.842144012,0.159257412,-6.66549778,34.78926086,24.46009636,16.04064178
1103,2.907958031,-0.118563518,-8.202565193,42.39303207,-2.583660603,12.3717041
1104,3.110144854,0.747563362,-10.70977879,12.57950306,1.458574176,10.01960182
1105,2.829506636,1.647428513,-10.9526968,-25.03471756,17.83212662,6.27889204
1106,2.157560349,0.205400467,-7.769069672,-25.43699455,12.18004608,-1.102873325
1107,1.281136513,-1.276683927,-6.117950916,5.418745995,21.89591408,-14.73594761
1108,0.793898821,-2.018447161,-6.532989979,63.71326065,31.86122704,-22.2185936
1109,1.287788153,-1.077902675,-8.76707077,125.0073395,19.6483326,-23.37631989
1110,2.010312319,0.177452043,-9.678833008,152.9281769,2.618612051,-19.94041634
1111,1.849782705,0.966238797,-9.251227379,154.5429688,0.02354648,-16.33145905
1112,1.0781461,1.392311454,-8.779092789,154.2859955,-3.081391096,-12.31036282
1113,0.655396402,0.949104369,-8.889893532,163.2939148,-1.392988443,-10.57872391
1114,0.151600674,0.439481795,-8.987833023,180.4856567,8.735444069,-8.792215347
1115,0.162603185,-1.092424512,-7.72891283,196.6463013,4.126749992,-2.126220942
1116,0.472569495,-2.429774284,-8.903913498,214.6508484,-2.807563305,6.402922153
1117,1.068481565,-3.317749977,-8.9286623,225.616394,-9.736844063,13.10653877
1118,1.726832986,-2.671239138,-8.371095657,230.1469727,-15.31456661,19.00709915
1119,1.754363775,-2.09855175,-7.365958691,245.1251068,-20.22170639,23.61889267
1120,0.74203825,-2.882446289,-7.238731861,258.6576843,-15.68604851,21.08549881
1121,0.452282906,-4.713046074,-8.522685051,252.1271973,-13.00528049,12.89689636
1122,0.326643616,-6.088254452,-8.686291695,239.1418304,-26.07316399,9.146568298
1123,0.516893268,-7.317980766,-8.785303116,231.0438538,-23.66694641,5.832897663
1124,1.400539875,-8.08588028,-10.19936562,252.4328156,-13.85663605,5.993359089
1125,2.727178335,-8.220011711,-9.280295372,267.545929,-2.174100161,5.989825726
1126,2.633081436,-7.069965363,-8.030158043,265.4528503,8.501265526,2.552632809
1127,2.157030582,-4.837948799,-7.892423153,242.1698761,10.08451462,-1.7838521
1128,1.109100342,-3.218165398,-7.878542423,200.3569336,-7.041614532,-3.253280163
1129,0.342778087,-4.884301662,-7.164543629,164.1183777,-16.74994278,5.646239758
1130,0.484798551,-7.437455177,-6.331655979,137.890274,-29.95028114,16.08134651
1131,1.152397394,-8.685194016,-5.973314762,111.0345688,-23.95125198,19.02350235
1132,0.796689212,-9.28986454,-5.862668037,88.61159515,-4.401716709,22.37985802
1133,0.698479116,-8.065199852,-5.517086029,51.69728851,7.785339832,24.42641258
1134,0.843649089,-6.401429653,-4.941517353,0.362574339,2.02284503,27.11792755
1135,1.333777905,-5.833046913,-4.40406847,-74.5417099,-16.85160446,34.41938782
1136,2.606225729,-5.343473434,-3.38617897,-147.6936951,-20.25663567,31.86450005
1137,1.442232728,-3.196011066,-4.382946014,-198.8478088,-2.19611001,13.75483799
1138,-0.489252269,-5.452820301,-4.602705002,-195.4059448,-0.946171582,15.47591305
1139,-0.693530083,-7.913937569,-3.622085571,-177.8226776,-14.82083416,27.54815102
1140,0.92912519,-10.22216606,-7.887042522,-191.1270447,-3.124375582,21.0006237
1141,2.533373833,-8.765785217,-8.943164825,-194.7115021,-22.77292252,2.846045971
1142,3.083379984,-6.337888241,-9.309541702,-185.0680847,-31.84556198,-16.12269783
1143,3.012923479,-4.926389217,-8.638272285,-162.3307037,-27.69538689,-16.05554581
1144,1.982851982,-4.678057194,-8.83749485,-143.3274078,-22.89282799,-4.670534134
1145,1.035963655,-5.942790985,-8.774801254,-125.1181641,-23.48508453,1.330585122
1146,0.811465442,-7.655911922,-8.32213974,-97.95872498,-13.97786236,-4.215976715
1147,0.414125979,-8.098358154,-8.562761307,-65.08036041,1.372274756,-23.4906826
1148,0.21585986,-7.217484951,-8.397847176,-38.36512375,2.332147598,-34.20641708
1149,0.426658869,-6.19102478,-7.969774246,-25.70550728,7.37371254,-32.43658066
1150,0.451411456,-5.694298744,-8.548704147,-15.35263157,11.84972668,-28.43227386
1151,0.264506191,-4.82802248,-9.016242981,0.486975521,12.27550697,-24.63933372
1152,0.232208818,-4.46094799,-9.10621357,9.484109879,6.860889435,-23.34486008
1153,0.53020221,-4.881697655,-8.818339348,11.55100918,2.826508999,-24.49282265
1154,1.243538499,-4.523583412,-8.101342201,21.51781845,5.538647652,-19.58038521
1155,1.0502491,-5.091479778,-6.909721851,9.939561844,14.5681448,-13.36563206
1156,1.199259043,-3.585609198,-8.151917458,14.25518513,27.8698616,-12.74955368
1157,0.970901906,-3.038039207,-8.053042412,31.66486931,28.02205276,-13.67214966
1158,0.196002513,-3.179547787,-8.549033165,34.97959137,20.61639214,-16.7204628
1159,1.193616867,-2.313425779,-8.421587944,24.22806358,13.57998848,-6.457428455
1160,1.906848788,-3.285065889,-8.067604065,-3.625785828,5.889417648,2.710842371
1161,1.539058208,-3.756901264,-8.3698349,-13.54774857,10.60886192,0.595591903
1162,1.121603727,-3.954843044,-8.527003288,-17.0804615,21.89080048,-2.4571805
1163,1.373989344,-3.64947629,-8.306731224,-18.55577278,29.38395309,4.334653854
1164,1.84334743,-3.506886721,-8.515768051,-25.01501846,27.6257534,10.3486414
1165,2.207874775,-3.731906176,-8.27036953,-51.46974182,27.25452232,10.76691151
1166,1.944748878,-3.082060575,-8.311239243,-102.5189972,21.89756584,8.753577232
1167,0.813805521,-1.735236406,-8.781396866,-154.2853241,17.51484871,15.90731907
1168,0.274041593,-1.416170001,-9.313680649,-193.1313934,16.0424099,25.01243019
1169,0.486275673,-1.913896799,-9.303518295,-215.7232971,13.05593586,23.2757473
1170,0.900210023,-2.48534441,-8.911571503,-233.6597137,14.89237881,15.74401283
1171,0.999196172,-2.172630787,-8.693616867,-232.3435822,32.40938187,7.326168537
1172,1.349774957,-1.260175228,-9.299687386,-221.9103394,26.40622139,7.849600315
1173,1.206807971,-0.225863129,-9.995347977,-215.2782898,-3.834877729,18.53023148
1174,1.370791197,0.489524841,-10.17159939,-223.0725555,-16.92515182,20.65413475
1175,1.861988425,1.567759752,-9.564769745,-271.228302,6.662997246,8.401847839
1176,1.530659199,2.372977495,-9.842086792,-316.0506592,32.6530838,2.537149191
1177,0.629717708,2.58628583,-9.608581543,-312.2080994,11.81785488,8.45868206
1178,0.377693236,2.29799962,-9.614542961,-274.2882996,-21.44532967,4.899037361
1179,1.433717608,2.457694054,-9.87719059,-253.5428467,-27.96971321,-9.752379417
1180,3.159891605,3.789920568,-10.23104858,-243.6156311,-29.39267159,-22.25661469
1181,3.594664335,4.433932781,-9.861140251,-242.9435425,-28.40696335,-22.01054955
1182,2.520411253,4.402953148,-7.49592638,-257.6817627,-26.41014481,-19.6639843
1183,1.177693844,3.921349049,-6.604074478,-252.5768738,-38.02862549,-20.61029053
1184,0.902100563,4.349104881,-6.504174232,-203.4845581,-48.64879227,-26.06784821
1185,0.723200023,6.144923687,-6.231388569,-139.3618622,-59.2816658,-25.03343582
1186,0.13932991,6.877103806,-5.283730507,-97.75997162,-62.27055359,-14.62442875
1187,-0.056506664,6.83364296,-4.667416096,-83.03797913,-57.06344986,-5.932383537
1188,0.17752707,6.294000626,-3.675360203,-60.79670334,-46.52456665,-7.824738979
1189,0.728200495,5.822268963,-4.303817272,-10.42015553,-37.48446274,-16.847332
1190,0.863704383,5.739628792,-4.713046074,42.72558212,-41.40920258,-21.56691551
1191,0.121214457,6.914684772,-5.201659679,83.25069427,-49.21863174,-17.67939758
1192,0.180133596,6.31592989,-5.512107372,101.2813721,-48.2635498,-11.80370808
1193,0.020078946,3.033529997,-5.840406895,103.9745407,-28.25162315,-9.87078476
1194,-0.759667754,1.690555573,-6.096950054,128.6962738,25.87981987,-16.81508446
1195,-0.23431024,3.573409081,-7.761950493,171.1785583,56.18725967,-15.64269733
1196,0.507035911,6.188178062,-8.600505829,193.2008362,64.3783493,-16.60381699
1197,0.833039045,6.53964138,-9.37898159,199.0406647,49.05501175,-8.921741486
1198,1.030459762,5.421106339,-10.08681488,195.58815,32.383461,0.718337119
1199,1.514204144,4.38652277,-9.93519783,193.6575012,17.37595558,11.31576824
1200,1.805876732,3.963779688,-9.604346275,186.7417755,18.23469925,9.225221634
1201,1.57862401,4.65281868,-9.582271576,183.9824982,31.2756691,2.572848797
1202,1.160482049,5.725762367,-10.38644791,177.71138,27.57233429,8.721526146
1203,0.721229613,5.470040798,-10.1261425,140.7810059,9.215480804,23.86089325
1204,0.191740558,4.698009491,-9.672006607,84.01264954,4.810350418,32.73268127
1205,-0.021819789,4.488724232,-8.78188324,27.30713654,24.84811401,37.83211136
1206,0.778527141,4.463443279,-8.624912262,-10.5437994,54.08431625,37.45067215
1207,1.918587327,3.661209345,-8.904393196,-25.60589409,68.9543457,34.84374619
1208,1.520886898,2.897206545,-10.1608057,-18.84065247,63.51373291,32.39717865
1209,1.073397636,3.393460989,-11.54843521,8.458227158,42.25685501,29.56962013
1210,1.510683537,2.835335732,-11.31861115,22.33893204,10.06805801,26.84767151
1211,2.168900251,1.787688136,-10.05917263,10.28494549,-4.60063839,19.74062157
1212,3.410343885,1.183455229,-7.4704566,-11.53954315,2.103886843,12.93616104
1213,3.137279272,1.626365423,-6.45006609,-39.0848732,18.43993568,12.19844723
1214,1.719384789,2.251420021,-8.248615265,-45.88328171,17.91386795,11.41398525
1215,0.945893943,1.805690289,-8.581916809,-53.57011032,0.835603833,9.645030022
1216,1.43162775,1.748413086,-8.101195335,-42.43002701,-13.47467995,2.419565439
1217,2.275646687,1.657101393,-8.221572876,-26.91518974,-35.91149521,-3.137680292
1218,3.325885057,1.560783267,-7.766699791,-7.230742931,-42.71310806,-3.120108843
1219,3.791736126,1.669083714,-7.415615082,-11.93900299,-21.91367149,3.572448254
1220,3.004906416,0.952909112,-7.865032196,-27.73912048,6.969562054,1.924934506
1221,2.452804089,0.299840987,-8.388190269,-16.61320496,18.10451317,-9.289952278
1222,2.183610439,-0.11061234,-8.496858597,9.15477562,15.22036266,-19.70717812
1223,1.968374372,0.505325794,-9.119789124,50.04717255,2.161076069,-25.5936718
1224,1.573060155,1.529763699,-9.737781525,100.2778015,-7.198291302,-29.24782372
1225,1.63419497,2.209591866,-10.57415962,134.4375153,8.068430901,-29.06688881
1226,1.411069512,1.441377282,-9.654950142,135.7685089,23.04620361,-25.5996666
1227,1.337567806,0.323459655,-8.987088203,133.3640442,37.79368591,-24.8337326
1228,0.566414833,-0.530938029,-8.970669746,150.4529572,53.12849045,-20.32106209
1229,0.606388509,-1.684140682,-8.781484604,176.2150726,41.85102463,-12.31002235
1230,0.947781086,-2.111277103,-9.790212631,214.2731934,34.4781723,-5.868844509
1231,1.641506314,-1.954425335,-10.16111183,238.8567505,33.15364456,-3.505804062
1232,2.082751513,-1.642371774,-9.493608475,231.1837616,33.39801788,4.294341087
1233,1.262986183,-1.151025414,-8.909641266,223.6500549,28.58418465,15.24970722
1234,0.493359476,-1.025639892,-8.052345276,235.3301849,1.824002504,21.11520004
1235,-0.039999619,-1.794025421,-7.606542587,252.3420868,-24.61684418,20.61924362
1236,0.460071117,-3.458266497,-6.859175682,263.9158936,-28.09606361,14.56043339
1237,1.22634697,-5.432258129,-7.641187191,247.8267822,-24.27782631,9.873181343
1238,1.531957269,-7.033845425,-8.598205566,233.2851105,-31.02626419,16.6069355
1239,2.425134659,-7.287051201,-9.580534935,220.7481079,-17.26866722,23.06105995
1240,3.483351707,-6.485235214,-9.101918221,226.9520721,-7.811210155,25.41814041
1241,3.82785821,-5.845049381,-7.926665783,223.4738922,-5.083385468,21.6419735
1242,3.502295732,-5.052473068,-7.12976265,197.7977753,-5.591029644,17.3730278
1243,2.417899609,-4.488760948,-6.819505692,162.4012756,-18.63373375,14.56180477
1244,1.441604137,-4.203556538,-7.129241467,129.105484,-36.95330048,14.67387104
1245,1.381375074,-4.898860931,-7.059108257,96.37893677,-38.69890594,19.44171143
1246,1.494451284,-6.933359623,-6.59348011,55.44492722,-30.93215752,23.83448792
1247,1.066090584,-8.458493233,-5.797147274,29.62091637,-17.80901146,24.60357094
1248,0.419392735,-6.616496086,-6.140419006,13.01993656,-8.22500515,19.64227104
1249,0.723897398,-5.925597668,-7.170337677,-16.71241188,-11.78283691,16.42692184
1250,2.126360893,-5.855070591,-6.709927559,-71.17425537,-33.06021881,17.40010262
1251,3.783486843,-5.658829689,-5.200003147,-136.6207886,-46.20183563,14.98151684
1252,3.010880232,-4.395020008,-4.845427513,-174.7776642,-32.50641251,15.10713005
1253,0.370126009,-5.47815752,-5.867853165,-186.5909271,-11.84685516,18.73144913
1254,-0.956622839,-7.80770874,-5.982877731,-156.1037445,-13.81016922,18.57203293
1255,0.083961211,-9.603785515,-6.154798985,-132.6188965,-10.38891697,7.345009804
1256,1.642628908,-8.156227112,-7.252140045,-130.81633,3.102059364,-10.93486691
1257,2.870985985,-5.306502342,-8.436478615,-122.5515823,-0.081068709,-28.30570984
1258,3.112818718,-3.539276361,-8.511693001,-113.9980545,-3.71677804,-31.38841438
1259,2.965414762,-3.374727249,-8.60159874,-108.8509674,0.338403076,-18.02236557
1260,2.4164083,-4.275538921,-7.652497768,-117.612236,10.8666544,-8.410628319
1261,1.639123559,-5.706064224,-9.627182961,-122.1715927,8.490862846,-10.4530468
1262,1.688947916,-6.847313404,-11.8580904,-92.74472046,3.965644121,-20.47400856
1263,1.596027255,-6.007618427,-11.0404892,-60.42033386,14.3200388,-30.43818474
1264,0.790895998,-4.225857735,-9.611624718,-52.27274704,20.91130447,-34.44036102
1265,0.513405204,-3.628324747,-8.353334427,-58.8752327,18.4559021,-30.07837486
1266,1.121451497,-3.972084045,-7.996570587,-59.42146301,15.0642643,-22.37950706
1267,1.106113791,-4.28031826,-8.592608452,-53.36935043,16.31772423,-19.59784889
1268,0.613645673,-3.636285067,-10.25879002,-34.38012314,9.456742287,-23.36730003
1269,1.278295398,-3.391435146,-9.946867943,-29.42259026,-1.358306527,-26.64979553
1270,2.150882959,-2.166725874,-9.613002777,-26.31323814,-6.663079739,-25.75104713
1271,2.727488518,-1.946647525,-8.175760269,-26.77037621,-8.549388885,-13.44305706
1272,2.354863167,-3.20690918,-8.08151722,-31.86858749,-3.967203617,-6.136005402
1273,2.11389327,-2.236004829,-9.06983757,-3.694132566,1.589197755,-4.164804459
1274,1.019662499,-2.327866793,-8.492935181,12.50875759,0.207469419,-6.582493305
1275,1.05774343,-1.389893174,-8.939821243,12.41006279,3.04712677,-9.84367466
1276,2.141606331,-1.594143748,-9.085792542,-5.142852306,-6.24883461,-4.352034569
1277,2.296536446,-2.531630039,-9.00982666,-6.745688915,-1.575956345,-2.760006189
1278,2.354909658,-2.986280918,-8.768745422,2.357924223,2.890361309,-0.916768193
1279,1.565059781,-3.099575043,-8.90092659,7.336255074,8.430672646,1.070169449
1280,1.559866786,-2.103900909,-8.990989685,3.550865412,17.30647659,-3.655435801
1281,1.767121553,-1.315102816,-9.361974716,-10.46886921,23.05576515,-5.961190224
1282,1.822257996,-0.981418967,-9.135373116,-27.42169189,22.95222092,-5.215621471
1283,1.968121529,-1.480265021,-8.534111977,-45.18092346,18.12391663,-4.011641979
1284,1.87735498,-2.369172573,-8.485296249,-59.05910873,22.41076279,-5.277040005
1285,2.016219139,-2.060258865,-8.798381805,-69.84619904,35.94687653,-6.226832867
1286,2.048820734,-1.099411368,-8.961943626,-86.39025879,53.49250031,-4.140635967
1287,2.253918886,-0.006624624,-8.303339958,-125.5645599,61.58052826,-1.138178945
1288,2.124351263,0.916102648,-7.714253902,-178.4599915,50.57139969,0.551796556
1289,1.356995106,1.438236475,-8.172958374,-211.1521912,38.18845749,-3.3004632
1290,0.954841435,1.559631109,-9.260099411,-208.5740509,21.11262512,-3.839707851
1291,1.757529736,1.376428723,-9.937439919,-199.1506348,-13.77839279,4.199785709
1292,2.29727602,1.341923475,-9.98529911,-217.3054352,-44.27431107,11.27282047
1293,3.183242083,1.308447361,-9.743943214,-250.0356903,-39.27548599,4.232014179
1294,2.551423788,1.694564581,-9.401762009,-276.697113,-15.25715065,-9.145085335
1295,0.904222727,2.406080961,-9.660074234,-275.8162842,-8.028259277,-13.62412739
1296,0.074548393,3.105415821,-8.956370354,-255.690918,-22.19281769,-14.9972887
1297,1.090934634,3.521188498,-8.024271965,-246.9851837,-25.00528145,-23.14095879
1298,2.517165184,4.268352032,-8.415395737,-253.7770691,-30.60733223,-31.7118454
1299,3.338563919,5.295086384,-8.356481552,-252.720932,-31.74463654,-37.48922729
1300,2.993166208,5.756250858,-7.737928867,-240.3932953,-42.87796402,-39.62631989
1301,2.69748044,5.845464706,-7.302741528,-233.3487091,-51.93476868,-36.43822479
1302,2.165630817,6.063890934,-6.738120079,-221.636795,-50.38215256,-31.34390831
1303,2.488021851,6.345396042,-6.88594389,-182.1719055,-51.05772781,-26.70284271
1304,2.2050035,6.32013607,-6.957335472,-148.7393951,-46.21895599,-28.50079536
1305,1.096589804,6.251253128,-5.488264561,-124.7977753,-45.24550247,-32.16368866
1306,0.202928811,6.67854023,-4.392449856,-94.76540375,-37.99786758,-30.20128059
1307,0.011432655,7.078548431,-3.514104128,-62.18922043,-17.38020134,-29.40150642
1308,0.250678033,6.994243622,-3.265911341,-29.22086143,-3.220099449,-29.83096123
1309,0.871941388,6.597225666,-4.300933361,-8.68344593,-5.153096676,-25.95503426
1310,1.076379299,7.206493378,-4.854286671,3.390200615,-17.17430305,-19.07639694
1311,0.829421878,7.738852501,-4.597592354,19.08900452,-21.62526703,-16.35416794
1312,0.845243633,6.494809151,-4.745249748,35.61429214,-29.37700653,-13.50292015
1313,-0.213751644,5.603913307,-5.348283768,69.27711487,-22.4924202,-14.22468758
1314,-0.979708791,6.284867287,-5.037908554,111.5166626,-13.55199718,-14.40080166
1315,-0.945207834,6.728857994,-4.870223999,139.9038086,-12.13010216,-12.95308304
1316,0.149223,7.849061489,-4.670089245,146.155014,-13.52931595,-11.64584446
1317,0.577233553,7.129998684,-6.539400578,162.1534576,-9.951241493,-4.26722908
1318,0.527918398,5.166962624,-7.815422058,184.4406891,3.040086508,1.251144648
1319,0.856663227,5.061721802,-8.739162445,211.5033417,13.40658951,8.443815231
1320,1.450521708,6.155551434,-9.064775467,226.70578,17.87804413,11.93055916
1321,1.842002511,8.141356468,-8.765111923,214.1378174,22.30891609,10.39352417
1322,1.514973283,9.256101608,-7.989958763,171.3339233,14.20134449,14.66063881
1323,0.853724957,9.734562874,-8.0238657,118.702774,2.953379631,22.96332169
1324,0.128236622,8.919566154,-8.221178055,69.95966339,5.614341259,34.85875702
1325,-0.324555308,7.642002106,-9.124633789,40.57336044,21.34586716,43.77149582
1326,0.120545968,6.143734932,-9.339801788,29.48914337,38.65552521,41.04801178
1327,0.244113341,5.401605606,-8.322810173,17.00477409,47.77189255,32.33564377
1328,0.737425685,5.672467709,-7.961009026,12.2550745,30.73039055,33.90162659
1329,0.989174426,5.553640366,-8.365506172,6.90684557,0.590690076,41.07918549
1330,1.826241612,5.084393501,-8.755615234,-0.778811336,-14.80500889,43.97758865
1331,2.515071154,5.445105553,-8.12775135,-18.83030319,-16.62767029,39.0564003
1332,2.552699327,4.703858852,-7.045293331,-41.44169235,-11.88148975,31.15708733
1333,2.072657347,3.169732332,-7.067793369,-52.9528656,-3.797359943,25.91222
1334,1.854641676,2.090125799,-7.247433662,-37.32822037,-6.409048557,25.85931396
1335,1.97469914,1.744885087,-7.232003689,-6.638165474,-11.5005455,25.34392357
1336,2.604937553,2.015718699,-7.289028645,25.18055153,-21.94775391,24.32923126
1337,2.970248222,2.100364923,-7.57600832,39.53252029,-33.46861267,24.30157661
1338,2.843582869,1.811571717,-7.540420055,37.10479736,-31.6125946,18.81354523
1339,2.799083471,1.423328876,-7.985606194,25.84531593,-10.7656498,5.521684647
1340,2.899255037,1.214992404,-8.11029911,26.45196152,8.008252144,-11.97821426
1341,2.974200249,1.887926459,-8.44199276,62.65500641,19.92790413,-24.06594467
1342,1.806075931,2.257655621,-9.971242905,113.0221252,36.87910461,-31.10228539
1343,0.681590199,2.08866334,-10.55270576,148.500351,48.22670364,-36.39888
1344,-0.030866772,1.412124395,-10.46135139,173.0823975,57.86534882,-44.38744354
1345,0.26886341,0.426256061,-9.166752815,182.9562378,68.13891602,-51.36766052
1346,0.518969417,-0.672079921,-7.572926044,190.8406677,50.90275192,-46.11394882
1347,0.451636404,-1.125668883,-7.554376602,177.1111908,25.22605324,-32.71473694
1348,0.230744585,-1.145191193,-8.889317513,174.6603699,9.277953148,-21.03579521
1349,0.472472906,-1.149357677,-9.248474121,185.467453,-1.852524519,-18.56913757
1350,0.665247321,-1.190166235,-10.04122257,197.5037537,-2.857864141,-17.86705017
1351,0.5265975,-1.43659091,-10.39387608,208.680481,-2.644892693,-10.32747746
1352,0.149506092,-1.821601629,-9.447508812,209.926651,-20.69423676,0.12546429
1353,-0.17883271,-1.947757721,-8.72479248,216.7381592,-24.68618011,4.585512638
1354,-0.170952827,-2.641208887,-8.366332054,232.3523254,-8.772548676,2.364073753
1355,0.625821471,-3.435431004,-7.989221573,245.6100006,1.964329123,-5.186573505
1356,1.13348043,-4.624882221,-8.588856697,252.0059814,2.60380125,-11.69876575
1357,0.862513006,-5.160978794,-9.749513626,260.3663025,0.712581277,-9.081771851
1358,1.517000079,-5.888417721,-9.960285187,265.4202881,-1.781760931,1.948854923
1359,2.477073669,-6.59287262,-8.639566422,259.7963562,4.532139301,8.41340065
1360,2.91280365,-6.725290298,-8.146879196,247.0940552,8.143686295,5.942568302
1361,2.437919617,-5.649698257,-8.322953224,222.6626129,5.916287422,-1.360048056
1362,1.644726276,-4.658330917,-8.401810646,200.7729645,-11.16622543,-2.888147593
1363,1.162525296,-4.959173203,-7.955048084,173.8954163,-23.11167336,2.849453211
1364,0.772153735,-5.713804722,-7.407909393,142.633316,-27.03818512,9.656720161
1365,1.005959153,-6.314469337,-7.240507126,115.2357559,-24.75491905,12.70432377
1366,1.025981784,-6.89603281,-6.673230648,81.42971039,-13.62188625,17.294487
1367,0.937791824,-7.389144897,-5.865701675,35.1371727,-4.201618671,25.68863297
1368,1.354896784,-7.197791576,-5.799497604,-2.882600307,-11.65711403,33.72722244
1369,2.405396938,-7.042613983,-5.685500622,-41.80689621,-35.58466339,32.88679504
1370,2.628897667,-6.115189552,-5.927707195,-92.67665863,-48.03409195,23.24832916
1371,2.321861744,-4.477497578,-5.031428337,-143.9087067,-27.71284485,11.82599068
1372,0.805631042,-4.372560978,-6.017138958,-155.3449097,-6.232548237,16.08014107
1373,-0.054741897,-6.673167706,-5.993089199,-148.3432312,2.52402854,30.83105087
1374,1.034279704,-7.691344261,-6.026650429,-123.0195389,16.41259384,34.75005722
1375,1.553122878,-8.04067421,-6.427335262,-117.3390732,38.14828873,17.52224159
1376,2.117636442,-6.352180004,-7.057751179,-129.6047821,13.82696819,-7.987594604
1377,2.496288776,-5.526193619,-7.526895046,-160.8722076,-2.060117722,-18.70577431
1378,2.426580191,-5.197907925,-9.745558739,-183.6540833,6.910712719,-16.92715263
1379,1.872476578,-5.019526005,-11.28386307,-150.0093536,4.252802372,-9.13349247
1380,1.400446057,-5.711895466,-11.28703213,-121.4434662,-2.034311295,-6.495070934
1381,1.231105328,-5.556715488,-10.63642025,-87.62276459,-0.078658752,-10.27210045
1382,0.43566516,-4.890014172,-9.066596031,-70.07730103,5.87047863,-11.4971323
1383,-0.052759025,-4.190765381,-8.276296616,-73.92758179,5.491696358,-12.2395792
1384,0.825736761,-4.584608078,-8.449953079,-76.2141037,-0.530424535,-12.96935081
1385,1.306362867,-5.50839138,-8.138710976,-68.13411713,2.114102364,-15.17993546
1386,1.049096107,-5.909796238,-8.555186272,-43.86657715,4.657150269,-19.38043022
1387,0.712437689,-5.195135117,-9.422607422,-12.13212967,1.140107751,-25.23835182
1388,0.410943389,-4.294299126,-9.16108799,-0.195579007,-4.055101395,-25.13245392
1389,1.053665042,-2.8659513,-8.833112717,-5.31137991,-12.28433609,-19.80106354
1390,1.746478558,-2.309162617,-8.218841553,-14.08176136,-14.92926216,-12.16948795
1391,1.717956185,-2.363142252,-8.331138611,-10.94167042,-12.99664593,-10.26890087
1392,1.746658683,-2.314121723,-7.450647354,5.369231701,-4.671151161,-11.84916592
1393,1.119897723,-2.748576403,-7.411056042,17.76980972,-4.147873878,-8.633714676
1394,1.092401624,-2.90361619,-8.289465904,32.64474869,-5.335081577,-5.982061386
1395,1.493740678,-4.079336643,-8.283687592,43.01307297,-1.415636301,-7.934751987
1396,1.790792346,-4.791882038,-8.153198242,58.22657013,9.730397224,-14.05953026
1397,2.444922686,-4.838808537,-8.173223495,72.24855042,14.66024303,-23.48020744
1398,2.876213312,-3.61543417,-8.140619278,68.19902802,21.64987373,-28.03316879
1399,2.929607868,-1.955946088,-8.393935204,28.38283539,25.52725983,-19.34163094
1400,1.820930362,-1.140396714,-8.24984169,-22.52330208,6.214658737,-5.059222698
1401,1.155154109,-0.603285074,-8.779391289,-60.58190155,-15.51175213,3.321391821
1402,1.230788946,-0.910796762,-8.789668083,-97.87696838,-24.54726028,5.11151123
1403,1.441412568,-1.921171904,-8.578208923,-129.7180023,-21.63676453,6.146199703
1404,1.541237473,-2.277191162,-8.556515694,-152.1979065,-4.79156971,13.56561089
1405,1.244108319,-2.110895872,-8.458403587,-171.7592621,10.72527695,22.18834114
1406,1.056022644,-1.301766634,-8.44342804,-186.6304474,18.95103264,23.4617672
1407,0.740122676,-0.062248081,-8.300608635,-193.8491974,19.18565559,20.28807068
1408,0.133384973,0.951168954,-8.642836571,-203.3946381,21.19738579,19.64339828
1409,-0.010735573,1.209616303,-9.30450058,-223.3512573,17.94745636,23.29292488
1410,0.169160202,1.460024714,-10.32417583,-233.4706268,-3.470890045,28.67410851
1411,0.58314985,1.28279686,-10.78930092,-230.7047729,-22.5032444,29.4240036
1412,0.581259191,0.935832083,-9.967655182,-240.8206177,-23.95114326,21.64188766
1413,0.361004949,1.655469894,-9.769527435,-260.9164124,-12.17332935,18.46101761
1414,0.122299097,2.43444705,-9.476902008,-291.1022339,-1.184494972,22.15537262
1415,0.50586468,3.176107407,-9.103886604,-288.469696,-12.24856091,19.49980545
1416,1.482169628,3.187165499,-9.106964111,-254.7820129,-29.01601601,11.92656422
1417,2.02441287,3.174045563,-8.908084869,-233.5182953,-26.52697182,2.76351428
1418,2.254000664,4.459644794,-8.933259964,-213.7730408,-16.63184357,-5.360211372
1419,1.90333128,5.688225746,-8.637156487,-195.0594482,-20.0581646,-10.93091202
1420,0.931464851,6.376249313,-7.890758991,-185.9259338,-36.90328979,-14.51555443
1421,0.550787866,6.758782387,-8.346699715,-163.4195557,-45.7689743,-14.96357155
1422,0.769842565,6.590555668,-7.71274519,-137.0149841,-55.05580139,-15.94305515
1423,0.771206081,6.064790249,-6.495164871,-116.5868607,-57.24742126,-14.46247673
1424,0.859793961,5.118477345,-5.679852486,-96.76177979,-49.86680603,-13.22988892
1425,0.704192579,4.694394588,-4.607294559,-76.87343597,-33.7770462,-18.05154419
1426,0.467005521,4.88284874,-3.871100187,-43.76016235,-23.13696861,-24.61161041
1427,-0.304552376,5.315456867,-5.836937904,21.08663559,-21.68390846,-31.47147369
1428,-0.604209602,5.376346111,-6.258667469,65.08272552,-34.49502563,-36.28775787
1429,-0.800920606,7.054046631,-5.059098721,68.3886795,-36.16847229,-36.88482666
1430,0.056785185,7.882244587,-6.502455711,89.98442078,-41.43927383,-27.37227249
1431,-0.738048375,4.777818203,-6.698722839,127.7651138,-28.8346386,-32.31565475
1432,-1.049213052,4.566074371,-6.502500057,132.9465332,-7.939473629,-37.14935684
1433,-0.181841999,6.001430511,-7.68811512,155.252655,16.2600174,-31.56804276
1434,0.45577547,7.200795174,-7.947128296,153.0328217,9.372919083,-27.87264061
1435,0.011957415,6.568413734,-8.227410316,150.412796,-3.043460369,-23.74774742
1436,-0.616090119,4.506119251,-8.1353302,147.0296173,-1.021705151,-14.22085571
1437,0.190683097,3.603057861,-8.774785042,162.0575562,6.284806252,-3.655809164
1438,1.506315589,4.002439499,-9.067256927,179.2257233,7.341822624,0.103032351
1439,1.63098979,5.005238533,-9.178636551,168.1474609,5.421589851,0.310924351
1440,0.778159738,5.67292881,-9.579989433,144.3017578,2.433686256,5.81947279
1441,-0.154120088,6.327466965,-10.38296223,122.0200348,6.805452347,21.53665161
1442,-0.798754811,6.430235386,-10.71298981,92.22431946,17.71766472,38.38565826
1443,-0.527753174,6.337574482,-10.56006908,52.804142,32.41621399,46.48684692
1444,0.04818492,5.808477879,-9.86884594,12.94353771,45.73418045,52.89790726
1445,0.139163598,5.5108428,-8.575311661,-17.37840271,60.61652374,54.88152695
1446,-0.502074718,5.116684437,-8.582140923,-17.92506218,56.47828674,56.43941116
1447,-0.369211912,4.525701523,-9.93261528,-0.264724255,31.06823349,59.60294342
1448,0.234353945,3.217561007,-10.19198227,4.79855442,5.357533455,59.21905899
1449,1.30671978,2.24327302,-9.662717819,-12.62931061,-2.035996914,48.08561707
1450,2.160824537,2.187598705,-8.180458069,-34.09608841,6.172306061,32.3613472
1451,1.700724006,1.939533234,-7.221928596,-51.46700287,14.54966545,21.91492844
1452,0.577982426,1.467726946,-7.809838295,-43.81011963,14.65862465,28.74462891
1453,0.167947993,1.506288886,-7.939093113,-16.24422836,-1.065596819,36.49826813
1454,1.012919903,1.759532332,-6.914921761,5.363623142,-18.00378036,28.96677208
1455,1.767255902,1.895846963,-7.864914417,16.69876289,-33.78770828,20.44492531
1456,2.481762886,2.228126287,-8.977048874,15.34522247,-29.17513657,15.32407951
1457,2.703840494,2.238203049,-9.345080376,4.309881687,3.624153137,4.893249989
1458,1.858035564,1.820843816,-8.45999527,0.982488334,35.25392151,-6.198070526
1459,1.062172055,1.11216414,-8.176449776,22.82590866,34.18684387,-17.14304352
1460,0.951504648,0.751524091,-9.076218605,55.71076202,28.51974487,-30.50475502
1461,0.444402665,0.985706925,-9.524981499,101.1792221,26.43322563,-40.06962585
1462,0.368882865,0.667917609,-9.519373894,131.2346954,31.20256233,-41.50173187
1463,0.911595523,0.271127701,-8.42250061,135.4888763,39.10469437,-38.44275284
1464,0.736921549,0.37073639,-7.327141285,128.8287048,36.78862,-29.27826881
1465,0.331816047,0.647711396,-7.391540527,131.6081238,18.20087242,-21.38673973
1466,-0.473611414,0.077337012,-7.557112694,157.2390137,10.25113869,-24.17552185
1467,0.002339069,-1.236977816,-7.374769688,188.6842346,5.310527325,-28.00326157
1468,0.288934886,-2.548871517,-7.617339134,208.5521698,-17.66676712,-17.15593338
1469,-0.003521483,-3.068219662,-8.026674271,216.1169281,-41.20736313,-5.119053364
1470,0.05852025,-2.942237377,-8.379723549,210.3097687,-43.81551361,0.071515873
1471,0.425034553,-2.828710794,-9.870512962,200.4280853,-28.12526894,-2.822005272
1472,0.328430623,-2.323113918,-9.466077805,206.6837463,-16.26800728,-8.660790443
1473,0.176856935,-3.219077826,-9.403388023,203.9753876,-18.57909966,-12.5760498
1474,0.099665031,-4.306965351,-9.181779861,208.5952759,-11.08714962,-13.18342495
1475,0.865526319,-5.229162216,-9.647247314,207.7076263,4.589944363,-8.657073021
1476,1.743494153,-5.383597374,-9.440223694,205.229187,16.6334877,0.964193285
1477,2.041574955,-5.238947392,-8.868265152,190.6712494,18.03806686,8.254684448
1478,1.92435658,-5.123711109,-9.075393677,174.1021271,13.48373127,3.572113514
1479,1.531649828,-4.695460796,-9.29720211,155.9786224,3.309009552,-4.373917103
1480,1.780406952,-4.353385448,-9.222194672,143.2646179,-11.55063248,1.25154686
1481,1.132172227,-5.071271896,-9.565042496,126.7321701,-12.05183125,7.843352318
1482,0.762360513,-5.13100481,-8.025094986,97.2800293,-7.918865204,12.79636288
1483,-0.08473479,-4.113642216,-7.059069157,48.46335602,-6.264651299,19.02537346
1484,-0.456045896,-3.580942869,-7.842367172,19.87382126,-1.448280573,20.66525459
1485,0.81807673,-4.374826431,-8.201833725,-30.85470772,-11.92072773,24.67937851
1486,0.113914907,-5.647490025,-7.873946667,-86.34593964,-32.36528778,25.84321785
1487,0.154661924,-5.472436905,-7.447606564,-130.5937653,-30.71514893,19.51108932
1488,1.003186107,-3.741979837,-6.672494411,-152.0064087,-16.6361599,10.99666691
1489,0.06226315,-4.237139225,-7.387254238,-146.08284,-2.376096725,10.49899006
1490,-0.134658426,-7.450936794,-8.594036102,-126.5174561,2.803445101,16.01205635
1491,1.274688244,-8.541488647,-8.592494965,-104.0143967,9.765708923,14.18653107
1492,2.586625576,-7.329908371,-8.396709442,-97.6765213,10.95338726,-0.394096822
1493,2.628800392,-4.878852844,-9.070293427,-83.72262573,2.299143791,-12.50472355
1494,1.84686327,-3.846530199,-8.673311234,-79.80326843,2.249026537,-15.47015476
1495,1.297333002,-2.965634823,-7.726189613,-94.42996979,10.8561554,-14.66093636
1496,0.848852158,-3.06120944,-9.328529358,-110.4685287,6.92908287,-12.18117714
1497,0.671151876,-4.152442932,-9.916153908,-102.1215515,4.312769413,-10.05534363
1498,0.400414705,-4.569453716,-10.94143391,-77.28574371,7.521121025,-12.05701828
1499,0.380668044,-4.319218636,-10.96882248,-52.29935837,8.122527122,-15.95770741
1500,0.305581659,-3.790835619,-10.06679535,-37.74188995,10.01227856,-21.32864571
1501,0.627082169,-3.319653511,-8.467815399,-36.52402878,16.79425621,-26.67035866
1502,0.293470353,-2.82525754,-7.87127161,-33.55623627,13.98680973,-28.91600609
1503,-0.043807227,-3.154188871,-8.486477852,-26.77284241,6.39817667,-22.72051048
1504,-0.244904071,-3.108159065,-9.14399147,-16.10047913,1.916814327,-21.72291565
1505,-0.127215624,-2.616992235,-10.03838539,-6.081773758,-4.862362862,-23.68613434
1506,1.067951798,-1.456231356,-9.842069626,-0.886443675,-5.562597752,-17.89154053
1507,1.638653874,-1.89523077,-7.940738201,-16.95985031,-1.593028903,-9.335873604
1508,1.584141016,-1.58492434,-8.130436897,-20.75654793,1.737145782,-6.628827572
1509,1.30231297,-0.681240439,-8.195851326,-1.587423801,0.615197837,-5.855023861
1510,-0.667881548,-1.340070724,-8.045580864,7.346596718,-5.101476192,-9.908149719
1511,-0.656277061,-1.763466597,-8.48716259,24.71926689,-7.145648479,-11.80103779
1512,1.195599437,-2.914972305,-8.282279968,40.75262833,-7.86218214,-10.77112484
1513,2.347110271,-3.175598145,-7.949053764,50.30693436,-7.300896168,-15.93280602
1514,2.490343571,-2.78667593,-8.388889313,58.54999924,-2.883363962,-22.08687782
1515,1.95993793,-1.42368412,-8.586371422,52.6931572,2.536176443,-29.55598068
1516,1.761600018,0.691598594,-8.954929352,31.179636,-2.732229471,-22.16424942
1517,1.841727614,-0.20867835,-8.792772293,-24.24258804,-20.80176735,-1.355909109
1518,2.035326958,-1.683378696,-8.897912979,-79.64818573,-35.20142746,14.78120232
1519,1.561770678,-2.542366982,-9.005764961,-112.4338455,-31.5144825,16.51012802
1520,1.356602907,-3.017003059,-9.888373375,-126.3517227,-1.764526725,10.52735138
1521,0.436594963,-2.635084152,-9.828229904,-148.0300293,15.32711029,15.17013073
1522,-0.043413166,-1.133543968,-9.265654564,-172.4100952,18.38485718,20.28837967
1523,0.533982992,0.218593284,-8.138342857,-181.8617401,22.1694603,15.1377058
1524,0.385183454,0.659496307,-8.405582428,-190.1902313,39.87614822,4.472157001
1525,-0.041099735,1.56338501,-9.439600945,-194.8333893,40.35182571,4.601995468
1526,-0.053316396,2.163421631,-10.52612114,-201.3707581,6.994740009,14.45584488
1527,0.393859863,2.401395559,-10.89552593,-221.6226349,-17.44253349,14.01421833
1528,0.983618379,2.130398273,-10.64657974,-231.4145966,-29.38406563,10.27463341
1529,1.063144922,1.143820763,-10.01074409,-251.6752319,-24.84319115,8.811073303
1530,0.748167574,0.485921383,-9.432026863,-262.6616211,-11.10185528,7.38710165
1531,0.43098703,1.028360724,-8.934846878,-249.7288513,-4.179989338,1.230121732
1532,0.208378151,2.063560247,-8.684735298,-235.2478638,-1.614452958,-4.575308323
1533,0.753131688,3.512567997,-8.294801712,-223.1380005,-0.873764277,-7.421790123
1534,1.56608057,5.096101284,-7.648646355,-229.670166,-12.20060635,-7.617255688
1535,1.732668757,6.378321648,-7.660336018,-241.3435059,-21.92613411,-5.266370296
1536,1.144153833,6.722389221,-7.783899307,-244.1036377,-27.83743668,-3.564342737
1537,0.165245175,6.678377151,-7.901886463,-222.2550507,-34.84267807,-3.361779928
1538,-0.360728979,6.736314774,-7.548493862,-184.569809,-42.17884827,-4.5389781
1539,0.338505596,6.36395216,-6.440252304,-159.8785553,-34.99069977,-6.818898201
1540,1.182944536,6.279193878,-4.996221542,-144.3213196,-22.55521393,-11.34701633
1541,1.310107589,5.96524477,-4.308523178,-106.8553085,-16.2378521,-14.3594923
1542,0.729211926,5.707699299,-4.403429508,-64.25830078,-11.4848671,-16.88780022
1543,0.107332096,5.874419689,-4.128379345,-31.62478065,-6.872637749,-18.32110786
1544,-0.540816486,6.624873161,-3.756682634,-4.04272604,-0.979789376,-17.59150124
1545,-0.647294819,7.466165066,-4.578442574,28.37626076,4.010560989,-17.72901344
1546,-0.425936818,7.675226212,-4.943696976,54.05480957,-6.311896801,-13.24534416
1547,-0.237308636,7.467233181,-5.83732748,82.98914337,-11.93659878,-8.814640045
1548,-0.279732704,6.616580009,-5.872164249,106.2698212,-6.679265499,-7.467950344
1549,-0.55885458,5.642939091,-5.308064461,116.5350113,0.149117887,-8.540849686
1550,0.130643561,5.274157047,-5.700592995,142.265152,17.08334732,-12.64069843
1551,0.510192275,5.375821114,-7.214251995,175.0097351,25.93424797,-13.85811234
1552,-0.348176658,5.48833847,-7.814329147,202.4351807,35.8583107,-13.60990906
1553,-0.572896183,4.91354847,-8.254699707,220.2224884,41.27214432,-11.90994453
1554,-0.279970676,4.244553566,-9.461843491,242.7057495,44.25740814,-11.15515518
1555,0.76987648,4.216351032,-9.577250481,254.4645538,38.95683289,-8.401686668
1556,1.76175189,5.458273888,-9.895320892,252.6744385,30.42487335,-3.856398344
1557,2.118751049,6.879182816,-10.4318285,245.4020844,24.44343758,4.251819134
1558,1.546823382,7.0727005,-10.24437618,224.1151886,14.00572109,13.1889019
1559,0.893045008,6.395745754,-10.14701271,185.5471039,-0.611143112,23.73572159
1560,0.395987511,6.051212788,-10.38014126,143.452774,-8.265413284,31.87313652
1561,0.350295901,5.459670067,-10.58842468,108.6357727,2.010695457,34.56068802
1562,0.646968246,4.381753922,-10.88495255,73.87653351,21.65369415,30.63063622
1563,0.863181293,3.561120987,-9.96730423,40.45583725,46.73956299,24.93239975
1564,0.963276446,2.964758635,-8.264433861,-2.342291355,62.35835648,20.23465347
1565,1.115111113,3.068999767,-7.582127094,-43.07748032,59.04641342,16.32191849
1566,1.8487854,3.688862801,-7.188328743,-60.14614105,55.26858139,7.576076508
1567,1.887585402,4.939291,-7.903721333,-60.77585602,63.0859642,-4.978757381
1568,1.583824754,4.665132046,-9.679326057,-60.57067871,47.32552338,-7.916596413
1569,0.834871113,2.730959415,-9.245444298,-49.79689407,-5.596347809,-1.644631624
1570,1.633169651,2.804238081,-7.628414631,-30.96627808,-31.78606796,-3.118726254
1571,3.230056524,3.345939636,-7.058225632,-16.87744331,-45.12791824,-0.569272399
1572,3.3607831,3.311253548,-7.658105373,-25.39071655,-42.69732285,16.59733772
1573,1.983108044,3.089025259,-8.678117752,-65.82840729,-31.91796684,33.06933212
1574,1.553774834,3.370311022,-9.233440399,-103.679718,-16.22108459,32.18562698
1575,2.308823347,3.049557447,-8.961386681,-114.9951324,0.87138015,24.91208076
1576,3.17545104,1.646062374,-8.323102951,-104.6155243,20.11929321,17.17090607
1577,3.27708292,0.735306442,-7.575303078,-65.40395355,22.26538467,13.13312244
1578,2.695777178,0.571933568,-7.547046185,-4.474759579,8.182246208,14.22631073
1579,2.061460018,1.069101453,-8.134632111,51.34903717,-4.566187859,13.38099575
1580,1.694212914,1.663902402,-8.568591118,86.18016052,-22.01727676,11.86921787
1581,1.619440317,1.7684232,-8.391469002,111.1684723,-32.06228256,8.995753288
1582,1.498321533,0.993551552,-7.808973789,124.5587463,-10.62687302,3.799206972
1583,0.932062685,-0.591055691,-7.833280087,146.9905853,6.617923737,-0.941043973
1584,0.64656198,-1.056872487,-8.875841141,185.693222,14.89627934,-3.268426657
1585,0.721469283,-0.660239518,-8.919298172,212.5227356,22.69010353,-3.258543491
1586,0.806603789,-0.073815331,-8.949226379,223.0036469,18.34276772,0.43943134
1587,0.756403267,-0.102309063,-9.163338661,227.1775208,-2.946752787,3.683642387
1588,1.45012629,0.133243859,-9.981688499,218.3895874,-0.479973048,1.105533957
1589,1.891878605,-0.306075841,-9.147535324,194.6835938,3.707056284,1.233076811
1590,1.356889606,-1.290952802,-8.255921364,189.3671265,0.429707408,2.381244898
1591,0.822003543,-2.863381863,-7.598805428,202.4095001,5.681230068,0.352340758
1592,0.73298496,-4.53617382,-8.324605942,199.1873169,-3.800770998,-1.851961255
1593,0.758349657,-5.291407108,-10.07835579,193.5063477,-6.415984154,-4.063928127
1594,0.990216792,-5.115721703,-10.58686924,211.5856171,2.515519381,-5.430262566
1595,1.233418226,-5.020914078,-10.122262,214.9248505,10.43605423,-4.662208557
1596,1.833595634,-4.507797241,-9.746677399,204.4287109,7.314620495,-2.291618347
1597,2.424989223,-4.250051022,-8.866109848,189.4723358,11.19701481,-0.153279454
1598,2.53258419,-4.135634422,-8.514480591,171.3913727,16.81023216,-0.69677031
1599,2.447579145,-3.93117094,-8.267105103,148.5816498,9.661673546,0.270440012
1600,2.132552862,-4.469405651,-8.434549332,130.5988464,0.005776012,3.541515112
1601,1.525722623,-5.553280354,-7.941677094,115.6172256,-9.643466949,5.068455696
1602,1.524813175,-6.364274025,-7.474477768,101.9955902,-1.115506053,4.299838543
1603,1.450033307,-6.761310101,-6.891845703,82.00006104,10.29268837,8.093667984
1604,1.025497079,-6.93813324,-6.364127636,54.96541595,16.89237404,16.90742302
1605,0.421143681,-6.939398289,-6.273379803,30.78423691,13.87421513,20.99956703
1606,0.72606343,-6.071765423,-6.518310547,8.758939743,2.383111,17.15791893
1607,1.841414094,-5.408800125,-7.368495941,-14.8762207,-15.91226959,16.25226021
1608,2.20544982,-5.379282951,-6.870680809,-50.14894485,-25.93265724,20.31360054
1609,1.714299321,-4.635298252,-4.992576122,-87.40370178,-21.8615036,24.30082703
1610,1.822886109,-4.288638115,-6.378323555,-119.5050735,-17.03624725,21.56126213
1611,1.456398368,-5.158419609,-9.104317665,-143.3721771,-14.74008465,17.66820908
1612,1.261139274,-6.214613438,-9.102948189,-156.1470947,-14.64376354,17.70291328
1613,1.43847549,-6.438136101,-9.019395828,-170.3891907,-3.868755341,15.63755131
1614,2.259364605,-5.332630157,-9.148008347,-184.0644226,3.651367188,6.881976604
1615,2.906008482,-3.721162558,-9.647219658,-185.9421692,13.83622265,-3.416179657
1616,2.579037666,-2.92513299,-10.84170437,-177.5861816,17.92377472,-8.635237694
1617,1.763834476,-2.818881512,-11.18207836,-156.078064,13.83726025,2.720169544
1618,1.729855418,-3.80508709,-10.46419334,-143.2315826,1.349471807,16.13433075
1619,2.438275814,-5.325258732,-9.976625443,-116.726387,-0.49606511,9.562983513
1620,2.419018745,-5.599309921,-9.796265602,-85.56352234,-0.136275902,-8.028457642
1621,0.733809412,-4.707391262,-8.151096344,-53.53467178,-0.93126899,-18.01717949
1622,-0.052420668,-3.634043455,-7.369276047,-35.84440231,-14.91080379,-17.6055069
1623,0.484262943,-3.104141951,-7.728225231,-28.94597054,-18.80872154,-13.21164322
1624,0.829480171,-3.519014359,-7.822707176,-22.05368423,-20.30353737,-12.50240517
1625,0.91276294,-3.649137974,-8.587389946,-2.877684355,-22.3116436,-17.82902336
1626,1.369110227,-2.90245533,-9.979682922,20.82281876,-17.65115356,-20.23680496
1627,1.44451654,-2.561327934,-8.172197342,21.60996819,-12.28953552,-15.83999062
1628,1.494529605,-1.755213976,-7.885695934,16.41822815,-9.914849281,-14.39529991
1629,2.727321863,-1.833975434,-9.163786888,36.81309509,-11.50980282,-15.50863647
1630,2.333118439,-3.36345315,-8.497317314,66.91817474,-8.947445869,-18.79749107
1631,1.791679382,-3.341345549,-8.006690979,87.85748291,-2.666235924,-17.59269142
1632,2.541468143,-1.543199182,-7.952442169,99.77398682,-7.285661221,-2.633385658
1633,2.113786697,-0.78162235,-8.331074715,90.13925934,-16.49767303,2.759184361
1634,0.908160746,-1.03739059,-8.958234787,83.33480072,-9.225686073,-1.883815885
1635,0.832745612,-1.892359734,-9.194150925,81.7864151,12.41647911,-3.607168436
1636,1.775320053,-3.13422966,-8.98516655,63.63991928,16.69260597,4.101930141
1637,2.529362202,-3.63991046,-8.451176643,31.26946068,12.0655241,13.05335999
1638,1.934448361,-3.422060728,-8.944602966,4.683959484,4.217538834,16.63854599
1639,0.794140339,-2.826282501,-9.633428574,-10.82211208,6.030733109,12.52167606
1640,0.243495971,-2.483506918,-9.186688423,-32.43071365,9.591997147,8.012505531
1641,0.583163917,-2.683359861,-8.743688583,-45.64450073,8.621456146,8.867890358
1642,1.199087739,-3.796709299,-8.790398598,-49.64904785,13.34937382,6.139729023
1643,1.836572409,-3.963432312,-8.516456604,-55.19007874,29.99833107,0.777842939
1644,2.145940304,-3.130437136,-8.092021942,-79.00183105,39.74000931,-1.604474783
1645,1.695122957,-2.138464689,-8.171782494,-117.6822205,39.66160583,-7.000204086
1646,1.263027906,-1.603953362,-7.891851902,-152.4637604,35.75835037,-15.04583931
1647,1.316148043,-1.048006415,-7.591267586,-176.9631958,33.76002121,-16.56044388
1648,1.092000246,-0.538479686,-7.737375259,-194.8284302,40.01138687,-8.924731255
1649,1.311854124,0.438111752,-8.52444458,-193.8397675,27.809515,2.509903669
1650,1.47235322,1.567550421,-8.824676514,-196.3339844,-8.599729538,11.3510313
1651,0.901659369,2.073098183,-9.40534687,-211.2394104,-23.68689919,11.4380312
1652,1.189943194,1.502322912,-9.834992409,-217.8614197,-13.06335449,8.456642151
1653,1.147305608,1.546658993,-10.08579826,-209.7900696,-22.69904709,8.227907181
1654,1.080686092,2.184847116,-9.406556129,-209.1717682,-31.48038673,4.339174747
1655,1.056645632,2.474128246,-9.414824486,-227.2534332,-21.17284012,7.774493694
1656,0.938503027,2.541300535,-9.580440521,-248.7941742,-14.16530991,16.1132431
1657,1.109443903,3.136096954,-8.907241821,-253.7689362,-24.21705055,17.13041878
1658,1.547746539,4.118709564,-9.013080597,-250.1394196,-43.40463638,11.70876503
1659,1.73438406,4.673342705,-9.316690445,-235.5397034,-55.13650131,7.471966743
1660,1.209688425,4.289101601,-8.617293358,-220.3578186,-55.83868408,8.09258461
1661,0.854259253,3.26466608,-7.844377041,-208.6087646,-42.84751129,10.15057564
1662,1.010673761,3.464810371,-7.502345085,-176.7504883,-36.38673782,7.707433224
1663,1.40664041,4.943228245,-7.556102276,-133.990799,-29.46490097,0.451767564
1664,1.247921109,6.320194244,-6.521954536,-104.9182053,-24.89245415,-2.557404757
1665,0.930947423,7.286608219,-5.870210648,-97.00204468,-23.84578896,-3.039565802
1666,0.852600753,7.808654308,-5.523848534,-91.26113129,-21.62323189,-2.349538565
1667,0.773744881,7.229243279,-5.093699455,-72.46885681,-12.91972542,-1.742144704
1668,0.563767195,6.26414299,-5.687355042,-40.15922546,-12.10881329,-6.284128189
1669,1.263532162,5.986862183,-6.088190079,-0.92579937,-24.35266495,-16.15046692
1670,1.27403307,6.052851677,-5.691401958,26.21614265,-40.76583099,-26.91057968
1671,1.211756825,5.813749313,-5.761013985,56.99065399,-51.85319138,-27.09821892
1672,0.300564855,5.229157925,-5.94196701,87.31743622,-43.73707581,-21.05170059
1673,-0.469206452,4.729852676,-6.269853592,118.3560867,-24.17139626,-16.63627052
1674,-0.525437653,4.129864693,-6.765492439,147.3030243,-0.632221758,-18.60593224
1675,0.060696736,4.570096016,-6.611615181,160.0574188,9.49913311,-20.50555611
1676,0.909402788,5.686395645,-7.727142334,168.7776947,13.17219162,-15.31475067
1677,1.258442521,5.473595619,-8.64821434,191.5068359,10.36197186,-8.973640442
1678,0.988386571,5.107296467,-9.169722557,191.2293243,2.235566139,-3.819396973
1679,1.120990992,4.719132423,-9.231937408,196.9087219,-4.145265579,-4.613721371
1680,1.561116219,4.628797531,-9.26066494,191.1465454,-3.685488939,-4.974499226
1681,0.959027648,5.212928772,-9.579639435,176.7527313,1.950333834,-0.30500406
1682,0.18082048,5.469777107,-9.881169319,156.3247986,4.2134552,7.952579498
1683,-0.188740045,5.025666714,-9.668642044,110.6480789,9.257074356,13.26159191
1684,-0.276363492,5.073577881,-9.923900604,63.31279373,16.38436127,19.5936718
1685,0.599670053,5.204806328,-10.34662914,37.69757462,24.21830368,25.19172478
1686,1.118615389,4.843730927,-9.729168892,21.36241341,29.90517807,24.82109833
1687,0.839767635,3.768563271,-9.342309952,7.107889175,32.07746124,21.70508385
1688,0.451699466,3.176016331,-9.739142418,11.38301373,24.44794846,19.81206894
1689,0.659721553,2.847452879,-10.12530041,14.49670315,3.615619183,22.46950722
1690,1.064025283,2.593138933,-10.3359766,5.615727425,-3.026708364,19.62389565
1691,1.630796671,2.402787447,-9.778207779,-7.031410217,-6.335729599,13.59045029
1692,1.51567173,2.591173172,-9.202573776,-28.37014961,-4.492163181,14.45187092
1693,1.225128174,2.569961548,-8.990455627,-49.03535843,7.640747547,18.83519745
1694,0.997149646,2.010214329,-8.19640255,-65.95050049,13.4619627,24.25391388
1695,1.285163522,1.40903759,-8.393931389,-62.6980629,7.071570873,25.4477005
1696,1.536558747,1.127878785,-8.463259697,-38.19610214,-8.310238838,21.32076645
1697,1.804522991,0.772988379,-8.216163635,-20.8619442,-14.93161201,16.58895683
1698,2.038447857,0.668623209,-8.382125854,-6.781155586,-19.6942482,11.74488735
1699,2.233312845,0.573358297,-8.676660538,17.65115547,-11.42278385,4.643110275
1700,2.021194935,0.507120788,-8.037806511,42.0138588,8.904513359,-3.109018326
1701,1.450611234,0.878367901,-7.84688282,56.12756348,23.39032173,-8.97360611
1702,1.36733067,0.826903641,-8.491516113,68.36605835,24.40812683,-15.71849918
1703,1.093574882,0.845562577,-9.417109489,84.15795898,15.66384506,-21.43767548
1704,0.103961185,0.477648735,-10.05268955,103.6355057,6.637420654,-24.78958321
1705,-0.447966278,0.792451203,-10.09131527,124.9350586,2.676175594,-27.25367737
1706,-0.129130185,1.323060989,-9.681957245,137.4762573,7.576883316,-26.7309742
1707,-0.03037829,0.585953951,-8.121040344,138.1527557,15.13224697,-28.55688858
1708,0.234945208,-0.296972454,-7.552253246,136.6947937,46.8558197,-36.92398071
1709,0.350319803,-1.263798475,-8.103207588,144.76091,68.71056366,-40.78709793
1710,0.208622545,-1.544740915,-8.627902985,169.1486816,46.09026337,-35.75526428
1711,0.413774908,-1.741075993,-8.502322197,186.0819244,13.36748791,-26.75798988
1712,0.88348335,-1.92524004,-8.745799065,193.1014252,-6.89317894,-20.07169342
1713,0.852345765,-1.524026871,-8.86315155,182.3658905,-12.3582716,-13.77976418
1714,0.641360044,-1.472667098,-8.769496918,173.6807404,-12.74773026,-8.108696938
1715,0.351222247,-1.586338878,-8.867575645,180.0420227,-11.68492413,-8.586749077
1716,0.289799452,-2.100529194,-7.982412815,191.9123383,-9.466766357,-9.497852325
1717,0.324979812,-3.068521261,-7.184254169,206.6747437,-2.151100159,-11.53245163
1718,0.649369419,-4.634138107,-7.254552364,201.3796234,2.737358332,-8.424262047
1719,0.521024585,-5.952842712,-7.938660145,199.6886292,-9.682388306,2.844377518
1720,0.954317331,-6.382481575,-9.463760376,189.0245514,-7.941581249,7.224865913
1721,1.723744631,-6.426774025,-9.15901947,190.3427887,-1.841583371,5.152351379
1722,2.672921658,-6.50836277,-7.798706532,189.1230927,1.426589727,-3.258941889
1723,2.891987085,-5.806741238,-7.761681557,178.7258148,3.620059967,-9.902009964
1724,2.269441128,-4.407466888,-7.378845215,155.4777679,-2.616092682,-2.961214781
1725,1.324758887,-3.947566032,-6.973621368,117.4095993,-22.33805084,11.34305668
1726,0.888544083,-4.880125523,-6.689041138,69.96949768,-38.72966766,15.40989208
1727,0.604035854,-6.338515282,-6.749180317,39.42736816,-35.53040695,11.18465805
1728,-0.12710689,-8.676862717,-7.224071026,28.47752571,-21.16679382,5.82691431
1729,0.26783821,-8.348783493,-7.419011593,18.41723251,-17.24195862,11.68326378
1730,1.433219433,-6.859253407,-7.152994156,-7.293183804,-21.21637154,31.33628654
1731,1.549612403,-5.643815041,-7.159437656,-55.64912033,-30.82206154,32.37701797
1732,2.218215704,-4.50468874,-7.166176319,-102.5914993,-27.17220116,27.5570507
1733,1.957643867,-3.565732956,-6.695594311,-149.3799744,-21.90811729,25.96536827
1734,0.144381016,-2.656001568,-6.188476086,-188.4160919,-12.09455204,25.12993813
1735,-1.117526531,-4.218266964,-6.571516037,-195.1421051,6.580437183,30.71226692
1736,-0.66946584,-8.061196327,-6.973183632,-160.9409027,9.097509384,31.39876556
1737,1.435065389,-10.11006451,-8.150686264,-132.4334564,5.325113297,18.68288994
1738,2.737617254,-9.034030914,-9.520228386,-125.6681976,3.136929989,1.446231127
1739,3.029262781,-6.542134762,-10.46105099,-118.2170944,1.132086158,-8.800185204
1740,2.705658913,-4.653175831,-9.653114319,-110.4547729,9.341787338,-11.40634441
1741,1.209920764,-3.929686785,-10.396101,-111.214241,14.90820503,-10.86363125
1742,0.135305479,-2.898776531,-10.46077633,-85.46772003,22.2221241,-17.26629066
1743,0.289796382,-2.791110516,-9.796901703,-78.69008636,9.470916748,-16.12555122
1744,0.408312887,-3.625949144,-9.441461563,-70.45529175,4.220415115,-11.73398972
1745,0.509619296,-5.372315407,-8.8901968,-59.62908173,6.527114391,-16.14133644
1746,0.935197473,-6.408963203,-8.801956177,-31.09177589,6.063959599,-27.71871758
1747,0.92982775,-6.158594131,-9.446715355,13.70375252,12.30222034,-29.03500557
1748,0.603196919,-5.523320198,-9.330595016,47.95346069,14.63715553,-20.95670128
1749,-0.238518178,-4.29131937,-9.310483932,54.34477997,11.43836975,-19.80175591
1750,0.044636957,-2.487734318,-9.413125038,47.39349747,3.482906103,-21.93172455
1751,0.687896311,-1.566547751,-7.787606716,19.44872093,-5.08411932,-15.68967056
1752,1.296149969,-1.294639587,-8.138063431,3.346256018,-3.561742544,-11.31919289
1753,1.926845431,-2.152182579,-7.77273798,2.883691072,3.36331439,-12.57616234
1754,1.9801296,-2.856328964,-8.121445656,18.87105942,2.656709194,-17.82658958
1755,1.77154839,-2.974900246,-8.277321815,40.78562546,-4.47639513,-17.29647255
1756,1.608489037,-3.772308588,-8.613667488,47.87197495,-9.271425247,-13.24093151
1757,1.446048856,-3.57511878,-8.665240288,51.81339645,-4.732731342,-15.96123695
1758,1.425336003,-2.924082756,-8.54335022,58.43014526,4.091963291,-15.53931713
1759,1.784832358,-2.184652567,-8.156665802,57.65887451,21.41942215,-16.672369
1760,2.196956158,-1.443235755,-8.233615875,40.85002899,28.41939735,-16.83345222
1761,2.168380737,-1.61737144,-7.640067101,13.39046383,23.6296711,-13.04967976
1762,2.324961185,-2.299122334,-8.166249275,-17.17170334,28.06887245,-11.88892078
1763,2.249814272,-2.372859478,-8.437829018,-50.55653,29.37055206,-14.85840702
1764,2.354480982,-2.060185909,-8.853110313,-86.05965424,27.19992828,-13.04048634
1765,2.158922195,-1.365235567,-9.398670197,-108.8759232,22.89005852,-4.018289089
1766,1.579989791,-1.44996047,-9.619256973,-108.6142197,15.97188377,4.545929432
1767,1.916895866,-2.703778744,-9.304503441,-106.9542236,17.38293457,-0.709328294
1768,2.814362049,-3.453613043,-8.949873924,-111.5027695,31.56464005,-6.541403294
1769,2.237063885,-3.248086452,-8.873995781,-125.9903946,27.27739143,-4.508963585
1770,1.343279004,-2.026517153,-9.423002243,-152.3607941,11.23173046,-5.422297478
1771,0.657762289,-0.482079715,-9.669755936,-178.6621704,4.563873768,-12.56806183
1772,1.022381067,1.083280683,-9.306767464,-196.4740906,10.51653194,-19.76819992
1773,1.347665071,1.8903687,-9.181063652,-218.5752106,-6.51290226,-15.75030327
1774,1.413525581,1.703105807,-9.81625843,-234.5428467,-30.62131882,-6.245307446
1775,1.337242484,1.343033552,-10.16399097,-234.7518616,-33.47718811,1.227603793
1776,1.019314885,1.482800245,-9.713813782,-239.3839264,-26.53634262,6.247644901
1777,0.917428553,2.137104988,-9.18542099,-249.333252,-17.50751305,5.687394619
1778,1.002121329,2.587502718,-9.354704857,-255.4014893,-8.10958004,1.866743922
1779,1.089049459,2.368688822,-9.564248085,-239.3687592,-12.2436409,-0.839491785
1780,1.813454866,2.175981522,-9.210895538,-211.6355133,-29.17841911,-2.133855581
1781,2.405731678,3.019073725,-9.129903793,-205.6243286,-28.01004982,-5.624942303
1782,2.608729839,4.285225391,-9.412793159,-213.6882019,-29.68279076,-9.885835648
1783,2.147322655,5.293773651,-9.088802338,-216.8822937,-23.47493172,-14.18917465
1784,2.024370193,5.763400555,-7.990877628,-221.8652802,-24.15436554,-17.12335968
1785,1.501710296,5.591641903,-7.391134262,-216.3512573,-27.3372364,-15.39389229
1786,0.77256012,5.387574673,-7.253077507,-188.0578308,-32.40673828,-13.92539501
1787,0.921752393,5.151004791,-6.848033428,-159.1777496,-37.09675217,-16.01232529
1788,0.992136836,5.19359684,-6.697342873,-132.4563599,-35.26980591,-18.19847298
1789,1.010079503,5.529384613,-5.929979324,-111.5704651,-24.84551048,-20.55265808
1790,0.981214046,5.738356113,-5.085329056,-91.98737335,-17.90190697,-23.99479294
1791,1.040398955,5.924302578,-4.043124199,-67.00447845,-17.17224121,-31.04479408
1792,0.390059084,6.48333025,-4.201136112,-30.97887039,-16.5071125,-36.69846344
1793,-0.160846129,6.882452488,-4.631831646,-0.779438078,-23.26838112,-36.780056
1794,-0.218628258,6.734004021,-4.812971115,32.48742676,-38.41999817,-33.99648666
1795,0.40684247,6.350472927,-5.359939575,68.36093903,-35.78347778,-32.91173935
1796,0.174045116,4.656834126,-5.183299065,99.93898773,-34.93733978,-31.83862305
1797,-0.491750002,5.104764938,-6.026500225,137.0499115,-26.27643585,-30.47161293
1798,-0.709185541,5.761777401,-6.397387028,167.4597626,-11.52333546,-24.865242
1799,-0.911603272,6.362089157,-6.110496998,165.5015717,-10.67050171,-15.97929096
1800,-0.521924853,5.190917969,-6.84442234,159.5636902,-14.99060535,-10.4225359
1801,-0.178462356,3.883686543,-8.185091972,182.7705688,-11.14509583,-7.652340889
1802,0.522408545,3.55667901,-8.846467018,204.2180481,-2.686783314,-4.596605778
1803,0.753175318,4.382474899,-8.97382164,198.1127472,7.211248875,-2.388497353
1804,0.631184995,5.352657795,-9.624629974,187.5847015,13.1554575,-0.217683867
1805,0.378334701,6.245875835,-9.6711092,168.8951263,10.06568623,4.594940662
1806,0.441443354,6.49274683,-9.550840378,142.3697968,4.573085308,9.043578148
1807,0.938963652,6.364909172,-9.928643227,112.1564407,4.125372887,10.58337975
1808,1.085806012,6.191850185,-9.93277359,79.67810822,7.275129318,14.93190384
1809,0.770710647,5.58379221,-10.10739231,49.15608978,9.18142128,20.98047066
1810,-0.325698823,5.157392025,-10.19987679,34.29489899,7.314799786,26.58771706
1811,-1.263557553,4.306638241,-10.05880833,28.10408401,9.566147804,27.23292542
1812,-1.134500146,3.788711786,-8.917332649,22.45978165,15.31209564,19.6298008
1813,-0.11749199,3.778512716,-8.811756134,19.83546829,22.35263252,14.77985001
1814,1.525417089,3.77647543,-9.499416351,29.24968529,15.80785847,16.65005875
1815,1.697449327,2.517304897,-9.247893333,14.92191315,-1.649370909,15.83936119
1816,1.281193495,1.596534133,-7.81279707,-18.52021027,0.619872987,6.537247181
1817,1.510615468,1.660325766,-6.625836849,-37.3474884,21.81964684,-0.537729263
1818,1.324626446,2.108906031,-7.170186043,-25.728405,39.49224472,-0.112427823
1819,0.890160084,2.31691885,-6.965049744,1.569493771,29.740839,6.188720703
1820,0.74862045,3.196135998,-6.851923943,19.22061729,-2.301433086,10.83236599
1821,1.252640486,3.354060411,-7.599659443,26.90916443,-35.72368622,14.19506168
1822,1.984794021,1.850640416,-8.316975594,32.12037659,-34.06718063,11.2997818
1823,2.388077497,0.029956162,-8.590483665,44.11435318,-3.553928137,7.536595821
1824,2.057669878,-0.735742271,-8.74811554,51.67417526,20.18967247,8.504042625
1825,1.601520896,-0.114927694,-9.390047073,60.15860748,32.93268204,5.093842506
1826,1.693642735,1.171286702,-11.06108952,75.08515167,44.1867485,-6.699860096
1827,1.128477216,2.219955921,-11.80342293,96.69180298,53.76734161,-11.64945889
1828,0.03649275,2.244094849,-11.01195717,114.5821533,51.81506729,-11.95215893
1829,-0.318765879,1.748809814,-10.90874767,131.9028778,51.2745018,-8.222515106
1830,0.225419015,0.723671198,-9.747138977,119.1941223,55.30951309,-6.243841171
1831,0.609093428,0.544957757,-9.088905334,111.3555908,52.24762726,-3.583318233
1832,0.975486279,0.77464819,-8.780197144,120.4947128,55.87152863,1.411802173
1833,0.541103005,0.707382441,-8.333347321,159.5038452,52.09645462,2.992295742
1834,0.348632395,-0.824943542,-7.402738571,191.8869171,40.15433502,-0.218269005
1835,0.263246596,-2.630578995,-7.584280014,203.1398773,19.26495552,-2.150104761
1836,0.377825379,-3.751451492,-8.501112938,208.0343475,5.542608738,-0.638263464
1837,0.708105505,-3.884741545,-8.616430283,208.8396454,-2.623566628,4.275589943
1838,1.214787841,-3.679720879,-8.358813286,202.4082336,-3.85667181,9.916137695
1839,1.192195773,-3.333061218,-8.129706383,193.6819611,-5.037382126,13.57327652
1840,0.952617466,-3.862122774,-7.954618931,186.8540955,-12.98346233,12.70316601
1841,1.054985046,-5.097463131,-9.062110901,181.6749268,-6.784341335,8.490955353
1842,1.488894105,-6.209443092,-9.416153908,186.3268127,-7.885254383,7.238114834
1843,2.106055737,-6.726127148,-9.889668465,191.2161713,-4.94999361,11.22498894
1844,2.360721588,-6.826554298,-9.388998032,211.7307587,-0.603025258,15.74979305
1845,2.944241524,-6.816962242,-8.708500862,212.6449738,-3.304534197,10.56626034
1846,2.91262722,-5.938110828,-8.983063698,204.7103119,-5.786617756,-1.634120703
1847,2.085832834,-4.790027618,-8.387300491,191.7192841,-9.810395241,-6.695985794
1848,1.512358069,-3.946291447,-7.931610107,159.3443604,-17.46328545,0.814775229
1849,1.217062712,-4.577959538,-7.775621891,113.212059,-19.87445641,19.75288773
1850,1.01688087,-5.992453575,-7.33507967,70.40989685,-6.031337261,32.853508
1851,0.714920878,-6.248479843,-6.807486057,45.40218353,5.664149284,36.14111328
1852,0.660511792,-6.369589329,-6.52414608,27.79595375,7.252129078,31.57510376
1853,1.0564152,-6.232074738,-6.089364529,0.308140665,-5.190078735,25.08179665
1854,1.562917948,-6.41782856,-5.81186676,-51.1497879,-34.61159515,27.40764236
1855,2.549557209,-6.11981678,-5.692705631,-105.7017822,-48.65485382,31.94380188
1856,3.382565498,-5.031474113,-5.333062172,-140.6736145,-32.31591415,30.43409729
1857,1.382760286,-4.666338444,-5.5114851,-161.912262,-3.088704824,27.10583115
1858,-0.924121499,-6.820567131,-5.621569633,-151.7164459,-12.03302479,28.53476524
1859,-0.266962916,-9.023201942,-6.816159248,-104.8324661,-7.696139336,21.5412674
1860,2.492319107,-8.964266777,-7.410859585,-77.21723938,-2.969758987,0.313928664
1861,4.248439312,-7.256141663,-8.22808075,-76.38186646,-15.13877296,-21.15733337
1862,3.855029821,-5.625770569,-7.9004426,-76.54062653,-27.95282364,-24.49599457
1863,1.916785955,-4.648923874,-7.750089169,-75.59731293,-19.27190971,-14.72980499
1864,0.344087362,-3.741145372,-9.105764389,-69.23866272,-13.50832939,-4.677210331
1865,-0.090431534,-3.403102875,-9.552382469,-61.7949028,-17.66567612,-0.059339091
1866,-0.65298003,-3.645479202,-9.817911148,-59.27859116,-19.30731773,-7.313904285
1867,-0.471562475,-4.148155689,-9.53989315,-57.45624161,-11.8499403,-16.52327156
1868,0.354556561,-5.471333027,-8.766264915,-62.15155411,-6.65474844,-21.76934052
1869,1.225888848,-6.017586708,-7.837997913,-65.83586884,3.655635595,-23.89549446
1870,1.128437519,-6.2861166,-7.624165058,-59.54465485,4.310997009,-17.54701996
1871,0.378733754,-6.187285423,-7.616616726,-44.33255005,-2.736014366,-13.37571335
1872,-0.008263929,-5.732876778,-8.899682045,-17.38377953,-9.812302589,-13.88595963
1873,0.302693456,-4.998122215,-9.519387245,6.323126316,-13.19440269,-15.03205299
1874,1.023823023,-4.493003368,-8.495668411,13.33884716,-12.25227261,-12.64651585
1875,1.156051517,-4.465325832,-7.871635914,15.89680576,-12.1377821,-10.01232243
1876,0.705690324,-3.781557083,-8.681928635,28.74357796,-6.952625751,-14.82516861
1877,0.346349418,-3.268514872,-7.859113216,33.31106949,-1.101793289,-17.29431152
1878,-0.167286783,-3.043949366,-8.236336708,26.08752632,0.04657045,-16.44630432
1879,1.088437557,-3.02534318,-8.635695457,15.75594902,-3.058424473,-15.73935795
1880,1.994521022,-3.604953766,-8.502091408,10.92384911,-7.079973698,-14.49781799
1881,2.044751406,-4.804247379,-8.138661385,11.88440418,-11.18597794,-9.772192955
1882,1.779408574,-4.730572701,-8.354052544,20.21525383,-5.729064941,-4.357412815
1883,1.443172097,-3.649679422,-8.345217705,21.88593864,3.421530008,-2.751353025
1884,1.737997532,-2.638257742,-7.602548599,4.573174477,5.410043716,-5.566876411
1885,2.007113695,-2.618270874,-7.554003239,-20.02086258,9.889989853,0.015367648
1886,1.613569736,-3.489401102,-7.75030756,-47.7927742,24.61192513,12.86906719
1887,0.783274293,-4.312245369,-8.028705597,-81.85547638,28.24316978,24.63066673
1888,0.687826037,-4.209496975,-8.677454948,-110.6813812,26.5572567,25.76797485
1889,0.62447542,-3.943405867,-9.111297607,-126.467453,30.63295555,25.7325058
1890,0.869392574,-3.568507433,-8.334842682,-140.9842529,44.79875946,24.76145744
1891,0.812122166,-2.538146257,-7.845331192,-163.4231262,51.86846924,21.7489872
1892,0.424057245,-1.061237574,-8.074130058,-188.9249268,46.64370346,19.43809891
1893,0.404310107,0.010275602,-8.569832802,-190.4394531,37.08835983,23.2894783
1894,0.510934353,0.920783639,-8.959064484,-188.8959808,18.51590157,24.27980042
1895,0.781667292,1.302499413,-9.535815239,-187.5543976,2.375224829,25.59765816
1896,0.513276577,0.983959913,-10.56599045,-199.7680054,-7.680835724,23.82273293
1897,0.99548316,0.160807028,-9.351433754,-243.3792572,-16.34464073,17.27165222
1898,0.780822277,0.129906565,-9.321659088,-282.7005615,-15.90750694,13.22505379
1899,0.337333053,0.824115634,-9.249711037,-286.9389954,-17.47237015,11.71823883
1900,-0.032429636,1.576718211,-9.817962646,-257.7167358,-19.59331894,12.03459072
1901,0.888374031,1.543134928,-9.747186661,-218.0765076,-32.98785782,10.38695908
1902,1.999386311,2.071209431,-9.726613998,-202.3358765,-49.04575729,3.153827906
1903,2.235106945,3.417958498,-9.914583206,-206.1296844,-60.33533096,-2.757104635
1904,1.399161696,4.236996651,-10.12048149,-223.0830994,-48.41075897,-5.037547588
1905,0.665218592,4.773919582,-9.241699219,-234.1749268,-46.37435913,-3.538054943
1906,0.624020517,4.842386723,-8.832255363,-233.442215,-42.07647324,-4.197524548
1907,1.135808349,4.792485714,-7.885692596,-207.8435974,-31.06816673,-7.677643299
1908,0.949215591,4.942077637,-6.681960106,-177.6474609,-19.37727165,-10.61130905
1909,0.364396989,5.010241032,-5.916609764,-145.2346802,-8.258515358,-15.49299717
1910,0.25119397,5.001725674,-5.251591682,-110.08535,-7.64013195,-18.16752052
1911,0.087008879,5.251033783,-5.012588978,-71.51564789,-11.52559662,-18.83242798
1912,0.029278018,5.47076416,-5.372215748,-25.24515533,-14.82629871,-20.64525986
1913,0.017957861,5.471527576,-6.275893688,22.21365929,-23.7364521,-21.23341179
1914,-0.501399934,5.617266655,-6.135760307,58.76873779,-36.99660873,-21.69007111
1915,-0.6202209,5.93581152,-6.681663036,89.77082825,-40.68166351,-25.23705101
1916,-0.392266393,4.914860725,-6.648565769,106.5304947,-33.02787018,-32.55627441
1917,-0.15578483,4.685558319,-7.421895981,125.8209381,-17.77384567,-36.11400986
1918,-0.347301245,4.89366293,-8.58307457,172.0843811,8.947897911,-37.19778442
1919,-0.449795216,4.799473286,-7.856966496,193.3402405,13.32213688,-31.33462334
1920,-0.65819037,4.68727684,-7.825135708,203.3917236,13.88815212,-20.88285828
1921,-0.331558406,4.532395363,-8.583475113,203.0486298,10.5043745,-9.980806351
1922,0.490026593,4.793792725,-9.536346436,201.2668457,3.637478352,-1.390238285
1923,1.163737535,5.19524765,-9.620680809,193.2065125,-3.733708858,2.236315012
1924,0.91878581,5.647904396,-9.545881271,171.9533386,-9.477229118,2.215749264
1925,0.022497667,5.726661682,-9.873591423,142.1400146,-14.42639446,5.683207989
1926,-0.637809217,4.99799633,-10.25621414,102.039032,-12.8024292,13.19748783
1927,-1.2504462,4.102673531,-10.14464951,57.92615128,-2.534269571,20.26407051
1928,-1.025393128,3.50403142,-9.890580177,32.77825546,12.19263077,20.50387192
1929,0.026577152,3.696827173,-9.556563377,25.50483704,30.73061943,16.73097229
1930,0.466916502,3.418929815,-9.404239655,27.61801529,41.1154213,17.03165817
1931,0.041427862,3.327688456,-9.660286903,30.61014938,40.10693359,19.57806778
1932,-0.350651234,3.790959835,-9.778389931,29.22271156,41.24304199,19.68211365
1933,-0.001204241,4.030062675,-10.12963772,13.11455536,32.17512894,22.63738823
1934,0.783483803,3.250333548,-10.03153801,-17.36528969,20.40377045,25.68641472
1935,1.608044982,2.731895924,-8.905047417,-50.16612625,22.93572235,25.87182045
1936,1.824335337,2.21411109,-7.325308323,-73.28234863,39.8377533,25.39641762
1937,1.772032857,2.107198715,-7.37678957,-76.37779236,55.16133881,24.71973991
1938,1.164833307,1.118070602,-8.490055084,-60.35224915,49.26007462,29.15985298
1939,1.355108023,0.183497876,-9.357408524,-28.2719574,41.36045456,30.85863495
1940,1.910922885,-0.229534328,-9.280186653,9.753878593,32.07364655,29.99948883
1941,2.622229576,0.943701863,-9.207744598,25.70677185,28.79089737,28.47108269
1942,2.629666567,1.621471286,-9.147034645,24.12164307,33.90297318,24.73804474
1943,2.367407799,1.34092319,-9.170337677,19.71076775,48.36904907,13.45039654
1944,2.095457792,0.605901599,-9.258983612,25.72143555,53.99651718,-2.363339186
1945,1.665439367,0.443338007,-9.541731834,52.96382141,39.6482811,-13.0939846
1946,1.548764825,0.460810959,-9.507164955,97.55673218,13.45004272,-17.63348007
1947,1.101422548,0.60310477,-9.387900352,133.5639801,-3.734545946,-20.19173813
1948,0.388158679,-0.271110654,-8.68087101,154.7517242,-2.382513523,-23.18015862
1949,0.151671842,-1.101109624,-8.151762962,159.2921448,4.282215118,-25.81141281
1950,0.830041647,-1.517387152,-7.198832035,151.9729004,9.978029251,-25.29799271
1951,1.158267498,-1.901417136,-6.854210854,149.620697,21.40805244,-24.41581345
1952,0.802543044,-2.090096235,-7.28253603,165.2167816,35.93215179,-28.57120323
1953,0.501385808,-2.682174921,-7.837743282,179.4469604,28.87416458,-22.29532242
1954,0.191508904,-3.283122778,-7.531140804,180.472641,-1.154471278,-6.196679592
1955,0.072642066,-3.230650425,-8.287729263,191.8850555,-13.38669968,0.596693635
1956,0.561307847,-3.125664234,-8.110913277,197.9320526,-13.54200745,4.30848074
1957,1.19174695,-3.294746399,-7.621154785,193.344696,-17.66354179,8.392912865
1958,1.861705184,-3.006006241,-7.958013058,196.6318207,-18.6194973,11.16295147
1959,2.289000034,-3.585837364,-7.73813343,200.6295319,-31.61833572,12.3588171
1960,1.505097628,-4.874116421,-7.511476994,206.8145752,-21.35627174,11.55593872
1961,1.17564857,-6.151272297,-8.508140564,203.3696747,-16.95615578,8.058964729
1962,1.74451673,-6.655435085,-9.302979469,194.7863007,-7.372330189,7.611961842
1963,2.571202993,-6.99840641,-8.30321312,182.555954,5.516076565,9.704797745
1964,3.279526949,-6.956661701,-9.171478271,174.6351013,14.7308073,7.565018654
1965,3.245630503,-6.397571087,-9.150417328,166.2810974,16.00563431,4.709640503
1966,2.42968154,-5.563395977,-8.841515541,149.1314697,7.746618748,3.105834961
1967,1.608395576,-4.638808727,-8.769813538,127.4020004,3.734776497,5.769706726
1968,1.439678073,-4.782062054,-8.048970222,93.0535202,9.275866508,14.40607262
1969,1.240982294,-5.190279484,-6.957499981,53.45651627,13.85824203,21.93557549
1970,1.310193896,-5.843684196,-6.515240192,24.29974937,18.35795593,22.35043335
1971,1.118725896,-7.21243763,-6.780405521,-0.469514042,25.92777824,11.3334713
1972,1.13675499,-7.707074642,-6.708554745,-31.54068375,17.72544098,0.422995687
1973,1.175719738,-6.257977486,-7.359846592,-76.77521515,-1.485714674,-2.564723253
1974,2.071517229,-5.16813755,-7.589776039,-127.3690109,-2.848429918,-3.516075611
1975,3.198270082,-3.86240077,-5.99802351,-154.9389801,2.762423038,-3.624062538
1976,1.903982878,-3.495519876,-6.320764065,-157.8273773,-5.718480587,3.300563574
1977,0.576800406,-6.473669052,-5.745794773,-159.1784363,-16.72713661,16.59744263
1978,0.556654871,-7.717922211,-7.876266479,-146.9070892,-16.49564171,16.91485786
1979,1.865040064,-7.463342667,-9.027303696,-129.7191162,-8.313333511,-0.314792454
1980,2.883787394,-5.512684822,-9.154996872,-120.5967865,-5.621453285,-21.32250977
1981,3.281482697,-3.76525712,-8.683071136,-104.2395477,1.687658906,-30.92586327
1982,2.178412676,-3.032690048,-8.225678444,-98.76470184,9.888451576,-24.4807682
1983,1.320125699,-2.649773598,-8.253591537,-99.16075897,4.199615479,-17.1218338
1984,1.680710793,-3.22695756,-9.490596771,-101.7598953,-8.189699173,-16.07184219
1985,2.384431601,-4.625079632,-10.08422184,-90.90606689,-12.14870071,-18.23814201
1986,2.268729448,-5.028384209,-9.81338501,-72.80593872,-12.36779499,-15.4987278
1987,1.669219851,-4.578011036,-9.364777565,-64.50943756,-11.42128372,-11.48107719
1988,1.569765568,-3.628848553,-9.519202232,-54.81028366,-1.386725307,-11.76791096
1989,1.78473413,-2.895088196,-8.835432053,-49.31585312,5.135873795,-12.6988287
1990,1.179946899,-2.189448595,-8.411218643,-39.88816452,3.68112421,-10.9293766
1991,0.513275445,-2.545168638,-8.039933205,-33.43431854,0.340029359,-14.45114899
1992,0.831883729,-3.039938927,-9.461723328,-22.27488899,-9.285464287,-20.58374214
1993,1.927922964,-3.487477064,-9.400507927,-22.45721817,-13.79101372,-20.98485565
1994,2.58398509,-2.368497849,-9.8775177,-15.98559475,-9.531784058,-15.55622196
1995,2.661750317,-1.902862787,-9.146705627,-13.28323174,-5.937233925,-8.187055588
1996,2.509200096,-1.346053362,-8.665743828,-11.5761795,2.754116297,-5.632031441
1997,2.114547491,-1.130718112,-8.08635807,-15.40596962,13.67160797,-8.096821785
1998,0.888459742,-1.703603148,-8.5266819,-19.52676582,11.98631477,-10.36252308
1999,1.104370832,-2.187444925,-8.989248276,-6.638169765,12.96123219,-15.90507793
2000,2.501801491,-3.079137325,-8.943506241,1.942735076,18.96669579,-19.7319603
2001,3.405600548,-3.228826761,-9.282617569,5.473805904,24.99733734,-19.98448372
2002,3.164896727,-2.769032001,-9.232598305,3.280227184,22.43286705,-16.17171669
2003,2.6772964,-2.129868746,-9.347204208,-9.170752525,14.13850403,-15.49593544
2004,2.286499262,-1.611969829,-9.170788765,-26.28349495,10.26257324,-14.49364471
2005,1.874683857,-1.168326735,-8.736845016,-55.1415863,3.96155405,-12.24202156
2006,1.945384622,-1.17540431,-8.763299942,-74.44096375,-0.613052309,-12.06847191
2007,2.130902052,-1.025499105,-8.656930923,-87.86521912,-2.175404072,-9.45365715
2008,2.140022278,-0.790876329,-8.620667458,-109.7386169,-2.007973909,3.355624199
2009,1.860968709,-0.484657168,-8.888933182,-135.3563232,0.046944734,12.64558887
2010,1.891503692,0.415220618,-9.033308029,-157.2424316,6.819090366,12.26092339
2011,1.506813049,1.570691109,-8.770648003,-177.6995087,10.16430092,7.896836758
2012,1.017977953,2.162693024,-8.474414825,-201.2322083,4.634095669,6.047004223
2013,0.614641309,2.777304411,-8.816628456,-208.9660187,-10.29656315,5.846892357
2014,0.562630534,3.086481333,-9.265242577,-208.441864,-27.18593216,4.907293797
2015,0.564902544,2.85190773,-9.58527565,-215.0339508,-27.69744301,4.919472218
2016,1.2589674,2.528665066,-9.0756073,-225.2055511,-25.68274498,2.570719481
2017,1.946084261,2.467202187,-8.153311729,-235.9949188,-24.66186714,-0.92765826
2018,1.751842856,2.31757164,-8.105032921,-235.0665131,-19.43449211,-1.990305424
2019,1.482684016,2.184091091,-8.123755455,-220.5731812,-10.15313435,-4.787119389
2020,1.659269691,3.066018343,-7.827681065,-204.2850037,-8.596957207,-11.12165451
2021,1.962565541,4.945065498,-8.451880455,-191.3899384,-21.8702774,-13.34354877
2022,2.806612253,5.952105999,-9.002910614,-175.398941,-31.89873886,-12.27804947
2023,3.082868338,5.805684566,-7.738013744,-173.5776367,-39.61842728,-9.713500023
2024,2.18002367,5.774050713,-6.998290062,-176.173111,-43.24236679,-10.66275692
2025,1.304179788,6.176450253,-7.520225048,-156.0972443,-39.14970779,-17.46953964
2026,0.882401228,6.376103878,-7.86386776,-123.5581818,-46.54999924,-25.22986031
2027,0.390042961,6.541163921,-7.517458439,-102.3418427,-54.8456459,-28.8269577
2028,0.295206696,5.897059441,-6.711000443,-85.05977631,-51.30329132,-29.37498474
2029,0.229509577,4.915067673,-5.099333763,-59.00855255,-38.41937256,-30.57218361
2030,0.165349722,4.43371582,-3.854710579,-26.55025291,-13.44344711,-34.34978867
2031,0.148675248,5.056223392,-4.291316509,20.77040672,4.200353622,-40.8437233
2032,0.121564277,6.336800098,-5.228767872,65.17954254,-18.55985069,-42.36704636
2033,-0.099640667,7.971451759,-6.011883736,90.90071106,-44.19834518,-34.71483612
2034,-0.028416399,7.436255455,-6.926831245,114.749054,-52.10100555,-23.82300949
2035,-0.077077329,5.517795563,-7.342942238,123.4939728,-38.04356766,-19.84259605
2036,-0.310174257,3.837749004,-7.236483097,135.2872314,-15.36164761,-17.34658241
2037,-0.060275979,3.716249466,-7.359809399,164.9906464,14.48527718,-18.66293144
2038,0.087096505,4.548356533,-7.41051054,183.8997192,34.93102646,-20.69351196
2039,0.100794435,5.091308594,-7.53352356,191.8244781,27.7691803,-17.03171921
2040,0.56891638,4.464933395,-8.509426117,200.0272522,19.47145462,-3.439571142
2041,1.434010506,4.786984921,-9.507299423,202.3961182,17.88823128,9.542385101
2042,2.055218458,4.872692585,-9.707355499,189.2378387,15.54119873,11.41153526
2043,1.9663167,4.815422058,-10.00324917,165.974884,14.68296719,8.715967178
2044,1.644202471,4.458517551,-9.693356514,136.835907,15.8706398,11.68806076
2045,0.90841496,4.306437492,-9.340126991,103.2555618,22.1194458,19.68128586
2046,0.722855926,5.42109108,-9.563096046,75.49863434,18.21282005,29.46157074
2047,0.989238024,6.085771561,-9.817602158,46.72360992,8.810433388,40.07549667
2048,0.260270476,4.878081799,-10.24388981,26.77283669,1.209910393,43.51931763
2049,-0.609263241,3.218357086,-10.49047947,23.16565323,1.557911754,42.46363831
2050,-0.437693089,2.411663771,-10.70666409,29.75533295,14.3869381,39.97233582
2051,0.037005994,2.609373569,-10.26018143,38.71017456,19.76027489,38.5449028
2052,0.692339659,3.452192307,-10.26955795,33.01535034,15.80739689,36.14321518
2053,1.805472255,3.768490314,-9.667782784,10.88514328,5.138998508,33.4774437
2054,2.750121593,3.307678223,-9.171458244,-30.12204933,-1.993269444,29.10292435
2055,2.541786909,2.217475891,-7.31065321,-64.00219727,19.1411972,17.67930222
2056,1.68701303,0.957237184,-6.875710011,-58.57746506,43.40308762,12.33031368
2057,1.091933608,0.700710297,-8.262125015,-18.58959961,33.13772964,19.79606247
2058,1.024118066,0.982996583,-8.979624748,26.18353081,5.478834629,27.54276466
2059,1.916694999,1.758229852,-9.171649933,37.74133682,-18.32297897,25.14059258
2060,2.674245834,2.798019648,-9.006436348,21.85344505,-43.7369957,21.90637207
2061,2.062870979,2.172443628,-8.594326019,-4.803218365,-50.14672852,19.35647202
2062,1.077116013,1.596151233,-8.953364372,-24.29288673,-30.46099854,12.56042576
2063,0.534340858,1.144520521,-9.361178398,-23.57364273,-5.418800354,-2.009832382
2064,0.496700525,0.517293096,-8.91951561,-16.05257607,8.376580238,-16.61654282
2065,0.761413872,0.014887674,-8.441110611,3.467858553,10.20417976,-23.08282852
2066,0.917725921,0.137856066,-7.488945484,40.74683762,14.91609383,-23.34328651
2067,0.785001814,0.864673913,-7.182120323,83.58696747,13.78710556,-23.0928936
2068,0.567334354,1.47117281,-7.905203819,114.0750885,16.33348846,-26.45489311
2069,0.719400644,2.205310822,-8.84073925,116.9733276,24.37092209,-27.16431808
2070,0.323200732,1.48200953,-8.616351128,106.7346191,11.79685593,-20.79608536
2071,0.067302674,-0.267142683,-8.45046711,95.7144928,-2.060910702,-15.50333595
2072,-0.031696424,-2.183612585,-8.909594536,110.669693,-7.337625504,-14.30371571
2073,0.16205585,-3.006733179,-9.62153244,153.4407654,2.119942904,-17.4299469
2074,0.464722008,-2.905444145,-8.966520309,186.5968018,2.677465677,-13.78932476
2075,0.844601035,-2.596432209,-8.111736298,194.4050293,-0.678686321,-8.356298447
2076,0.896488667,-2.106305361,-9.44575882,189.0583954,3.364466906,-7.705541134
2077,0.655337274,-1.897820234,-8.959197998,200.2117462,4.144734859,-11.02626038
2078,0.713867068,-2.418358088,-8.651314735,207.3448334,6.031401634,-10.78090286
2079,0.709979534,-3.605627775,-7.88659811,209.3399658,5.236634731,-6.151168346
2080,0.798621356,-5.056198597,-8.522565842,212.2128601,0.34354645,2.329909086
2081,1.279823184,-5.844611645,-9.037957191,215.1152191,7.212115288,8.122397423
2082,1.585745692,-5.901609898,-8.637671471,212.8263245,9.292728424,12.7272768
2083,2.269310236,-4.939667225,-9.073906898,207.509079,10.48227501,10.23042679
2084,2.578199625,-4.082792282,-9.743485451,194.358429,5.524730206,3.685223818
2085,2.066311598,-3.934786797,-9.430950165,172.4151611,3.760428667,-6.73580265
2086,2.483486414,-4.512372494,-8.742164612,149.4693756,-2.656790257,0.254725516
2087,2.082408905,-5.434577465,-8.999149323,121.6663666,-6.171569347,8.984727859
2088,0.922400534,-4.860165596,-9.730111122,113.5686493,17.94541168,12.54466724
2089,0.076289564,-4.343384743,-6.686096191,89.77097321,39.74692535,21.30228615
2090,-0.155956119,-4.780741215,-5.700051308,45.15871048,19.76033592,25.76955986
2091,0.546632946,-5.646997929,-6.735283375,-0.380893469,11.37212181,18.36051941
2092,1.179308295,-5.979214668,-7.595410347,-41.82630157,-0.850930035,13.36685944
2093,1.790520787,-6.119572639,-7.816247463,-88.33937073,-20.45743179,9.641580582
2094,2.713839054,-5.57760191,-7.717721462,-125.0733032,-13.67535305,5.522432327
2095,2.609915972,-4.071248531,-6.82814312,-142.8261108,-2.831912041,6.763763905
2096,1.172917485,-4.50843811,-8.173191071,-123.7971497,-1.373292804,7.792867661
2097,0.297641069,-7.187631607,-6.659077168,-88.89889526,2.245195627,9.592905045
2098,0.77684325,-7.549186707,-6.401293755,-58.19705963,16.94215202,7.664008617
2099,1.903543591,-7.024158478,-6.898660183,-49.84939957,22.28906631,-1.872692585
2100,3.149046421,-5.94959259,-8.84482193,-43.72192764,14.89705753,-9.036410332
2101,3.030609608,-5.217959404,-9.167366982,-46.50785446,17.7323513,-14.23843193
2102,1.901326895,-4.214177608,-7.5144701,-58.41496277,18.69637489,-12.42646027
2103,1.010446072,-3.936511278,-8.697599411,-70.77508545,15.31266594,-8.492613792
2104,1.310052991,-4.678610802,-9.830360413,-66.95568085,6.357161522,-6.808739662
2105,1.460740924,-5.607196808,-10.06539154,-50.68455505,1.884907246,-8.228777885
2106,1.409023404,-6.016121387,-10.05162907,-31.36506271,4.545376301,-13.0682106
2107,1.321011662,-5.361672401,-9.165362358,-19.61496925,7.149953365,-21.47336769
2108,1.312677264,-4.031146049,-8.772107124,-22.4956665,13.84645367,-26.81495094
2109,1.428246379,-3.64563489,-7.872349739,-26.81585121,13.86938477,-20.28568459
2110,1.859780788,-3.629535675,-7.829214096,-28.06968117,19.92668343,-8.074591637
2111,1.238494277,-3.800429821,-8.334026337,-28.16576195,20.04916954,-7.172989845
2112,0.957196772,-3.988085747,-9.38995266,-20.03935432,0.099857725,-14.95896149
2113,1.615478516,-4.429208279,-9.236296654,-26.13222122,-7.476442337,-21.60176468
2114,2.376308441,-3.616799116,-9.368085861,-24.07526588,-5.792762756,-21.62953758
2115,3.254262209,-3.240237474,-8.176028252,-23.29524994,-10.70353794,-12.51363182
2116,2.920531511,-3.989777565,-8.118783951,-23.18536949,-2.43695116,-8.008583069
2117,1.95605433,-2.943253756,-8.495698929,0.080238245,12.407897,-10.75165749
2118,1.183840156,-2.673775196,-7.593066216,1.80569005,5.069812775,-12.53710461
2119,0.905125439,-1.821339369,-8.331606865,1.675969243,11.0702858,-16.03218269
2120,2.10547924,-2.275228024,-8.199914932,-5.355457306,12.84269524,-15.67627811
2121,3.140483141,-3.426045656,-8.274942398,-17.52350807,11.37760735,-12.83811665
2122,3.51124239,-3.906544447,-8.963320732,-24.67359543,14.91861534,-11.69024563
2123,3.264375925,-4.060099602,-9.342809677,-29.90971375,31.04328156,-13.07544136
2124,2.578248501,-3.501767874,-9.005731583,-37.04991531,35.4586792,-17.65620041
2125,2.211639166,-2.535048962,-8.251174927,-54.94748688,19.90113831,-18.64506531
2126,2.40139842,-1.451426625,-7.71548605,-83.02450562,5.947968483,-13.60873413
2127,2.429774523,-0.720211565,-7.720006466,-113.3533325,-3.462642431,-4.139514446
2128,2.18721509,-0.029837459,-8.40689373,-144.0483856,-3.498368502,5.584631443
2129,1.687301874,0.05967778,-8.573933601,-169.9734344,-2.69533968,8.896481514
2130,1.343343019,-0.036285564,-8.289801598,-183.2798767,-7.736395836,6.642174244
2131,1.047350168,-0.196563169,-8.147053719,-190.7705994,-14.41361523,5.193625927
2132,0.794916451,0.10906215,-8.610816956,-202.4839935,-14.30797482,4.068572521
2133,0.591745019,0.577542186,-9.515789032,-206.9909515,-14.84334183,3.339064837
2134,1.088955641,0.917336345,-9.679182053,-206.560379,-23.80371857,5.309726715
