PacketCounter,Acc_X,Acc_Y,Acc_Z,Gyr_X,Gyr_Y,Gyr_Z
1199,0.22833018,6.511049271,-5.134572029,-22.7715416,-69.74409485,-1.962149501
1200,-0.218061477,6.889212132,-5.29028511,-4.356815815,-67.17900085,-6.303041458
1201,-1.42967248,7.104245663,-4.785167694,1.309952021,-44.14739227,-12.92296982
1202,-1.105157256,6.411744118,-4.807282448,11.54535484,-23.5904808,-16.74403954
1203,0.039044131,6.150705814,-3.775003433,51.16760635,-26.52113914,-14.29448414
1204,0.746815562,6.712456226,-2.647072554,60.18868637,-27.61715126,-22.17873955
1205,1.58956778,8.070953369,-3.104293823,71.29097748,-33.38421631,-36.26638412
1206,2.080753326,9.883506775,-2.914445639,91.18989563,-44.53761292,-42.35483932
1207,1.951394081,9.657639503,-1.850134015,77.37006378,-42.46142578,-48.42831802
1208,1.818543196,8.532329559,-2.565419197,66.96591187,-40.01133728,-56.8466835
1209,0.521756649,7.852843761,-4.024250984,84.92063904,-47.65780258,-59.08597946
1210,-0.430228591,7.928111076,-4.700730324,109.5738678,-51.77655029,-58.65575409
1211,-0.38359201,7.552022457,-5.810654163,106.5599136,-41.04322052,-62.59280396
1212,-0.369025707,7.339211941,-6.438995838,106.1906967,-39.05995941,-63.12677383
1213,-0.310539961,6.600453377,-6.743563652,92.13301849,-33.37096024,-55.52516556
1214,-0.671124637,6.200891972,-6.878417492,61.42887115,-20.97349739,-47.2277565
1215,-0.838066578,5.828085423,-7.07002449,29.88480949,-2.632358789,-44.34033966
1216,-0.655625224,7.145997524,-8.594350815,18.83232689,17.07338715,-37.55289841
1217,-0.174534276,7.35256052,-8.941083908,11.91481113,26.87669754,-24.00856972
1218,0.152518481,6.331624985,-7.994123936,-28.60243034,33.31132507,-15.07194614
1219,-0.943971932,6.597746372,-8.107964516,-39.6755867,44.79836655,-7.207427502
1220,-3.056818247,6.096271038,-9.109015465,-8.013933182,36.89894485,-0.149386808
1221,-2.703513384,5.580896854,-8.804610252,13.39199734,39.89408112,5.144464016
1222,-2.163025856,6.490847588,-7.23209095,13.71334934,56.26743698,4.667899132
1223,-1.605113864,7.190737247,-6.291749001,4.44677496,53.39803696,1.903215766
1224,-2.455446243,5.593620777,-6.965310574,-2.692101479,8.807770729,9.115815163
1225,-2.314563751,3.934816122,-7.387627125,-1.399069905,-16.89405632,7.800184727
1226,-0.981275201,4.865262032,-7.975563526,12.12201023,-11.42587566,-3.108552694
1227,-0.970829546,4.557739735,-6.910853863,29.05437469,8.466438293,-18.85574341
1228,-2.121979713,4.375838757,-6.988197803,34.33664703,27.3269825,-30.41752052
1229,-2.281298161,3.015923977,-6.903263569,42.21427155,33.3850174,-39.37998199
1230,-2.194582701,2.585128069,-6.644576073,62.47970963,27.34453201,-41.34654617
1231,-2.540557146,3.190127134,-5.882572651,88.97151947,23.47656631,-46.35386658
1232,-2.440370321,4.056499004,-5.612910271,103.0874863,21.35311127,-53.71338272
1233,-1.416263461,3.851666212,-5.676229477,118.3229065,23.26432037,-58.96994781
1234,-1.031025171,2.144310474,-6.310240269,136.0761108,21.60589218,-62.18470764
1235,-1.579572797,1.193052411,-9.393968582,163.1286316,5.624409199,-64.22151184
1236,-2.457455635,2.410506487,-12.5534029,198.8695679,3.43384099,-64.67720795
1237,-3.569992304,1.903447151,-11.47973824,204.3167725,12.59861946,-66.50245667
1238,-3.909710169,1.270325661,-9.975883484,200.170166,12.98678207,-66.89541626
1239,-2.805723906,-0.445053995,-9.307534218,213.8105927,24.47029305,-77.27085876
1240,-2.280376434,-0.779070675,-10.97366428,245.0802765,33.72728348,-85.74938202
1241,-2.135929108,0.229678094,-10.49920082,278.6685486,36.93574524,-93.1631546
1242,-1.835968733,-0.697564483,-8.966520309,274.0043335,47.49946213,-93.37026215
1243,-2.199826956,-1.734715462,-9.450831413,271.4767761,47.99332809,-92.20730591
1244,-3.230794907,-2.444720268,-11.02903271,301.5924072,40.12685776,-96.69992828
1245,-2.470271349,-4.026013851,-10.86745644,325.7203674,35.24576569,-92.70401001
1246,-2.288717747,-5.26875782,-10.35058212,314.8367615,35.88677597,-85.48831177
1247,-2.687380075,-5.537654877,-10.75594997,298.5375977,28.4035244,-77.86403656
1248,-2.523615599,-4.521409512,-10.59472466,301.0887451,24.45668793,-73.56945038
1249,-2.247658253,-4.393427849,-9.636626244,282.5335999,25.3241806,-68.87514496
1250,-1.176929474,-4.332934856,-9.140615463,235.9888306,12.26153278,-60.69504929
1251,-0.055249978,-4.409265041,-8.921491623,182.0737,11.43365669,-48.2566185
1252,-0.713589907,-4.203796864,-8.353824615,136.9244385,22.14829445,-35.77702332
1253,-1.740660787,-4.691604614,-8.548592567,97.01783752,22.42937279,-25.83534241
1254,-1.606052637,-4.85789299,-7.164270401,57.44789505,21.51428223,-10.23174
1255,-1.559492469,-5.38076067,-5.875508308,26.42630005,18.63411903,0.528564811
1256,-1.06655705,-4.452728748,-5.123661995,-6.641026974,32.12880707,5.126318932
1257,-1.489028335,-4.178576469,-5.933319569,-35.12306213,17.34457207,14.12235928
1258,-1.475449681,-5.773755074,-6.029925346,-53.74232864,3.796468496,22.42111969
1259,-1.07458818,-6.344199181,-6.461326599,-103.6111755,-27.39428139,37.99472809
1260,0.299253583,-4.613063812,-6.652090073,-150.9212189,-33.34328842,51.54970932
1261,0.39633286,-4.292908192,-6.828445435,-196.390686,-24.99542618,54.98502731
1262,-0.642623603,-6.429094791,-7.633906841,-214.8647461,-24.36494255,58.21064377
1263,-1.016425848,-6.155561447,-10.09434891,-203.78685,-33.44538879,62.31863403
1264,-1.030411959,-5.9696064,-10.45442963,-208.138916,-33.2982254,64.32736969
1265,-1.48683846,-5.569817543,-10.08453178,-211.6062775,-21.49985504,63.157341
1266,-1.270113587,-5.142920017,-9.467302322,-193.4182281,-25.27614594,60.2598381
1267,-0.853972852,-6.959672451,-8.612558365,-180.98909,-42.35570145,57.48257828
1268,-0.791315913,-7.109320641,-8.282298088,-155.9993744,-55.69962311,52.35913086
1269,-0.550427198,-5.498967171,-7.563818455,-127.0026855,-63.65329361,41.76696777
1270,-0.676523507,-3.787817478,-8.320520401,-118.4339371,-72.38713837,34.94693756
1271,-1.146752715,-2.759572029,-10.3719492,-104.3398361,-69.3034668,31.3241024
1272,-0.99385947,-3.72497344,-10.76113033,-77.15823364,-56.85553741,21.95241356
1273,-1.198588848,-4.583814621,-9.117799759,-63.32393265,-37.69830322,9.815252304
1274,-1.033623099,-4.396676064,-8.962929726,-39.74126053,-37.45680237,3.699965954
1275,-0.604290366,-3.916355133,-9.594567299,-17.42801094,-35.40563965,-1.429721355
1276,-0.370129108,-2.010042191,-9.434404373,-10.02780724,-24.08047867,-6.940572262
1277,-0.348349303,-1.500335336,-8.732493401,-8.484949112,-9.898272514,-15.56820202
1278,-0.435781956,-1.931304455,-8.018548965,-0.795774758,1.449571848,-18.54986763
1279,-0.731163204,-0.841031373,-8.071782112,12.43733788,8.285461426,-16.8415947
1280,-0.653609037,-0.574794769,-7.813579082,4.703161716,22.50759888,-9.527766228
1281,-1.899892688,0.983799398,-8.083323479,-12.92024994,33.73915863,-11.64593506
1282,-2.868908644,2.098148823,-8.111032486,-32.56497192,34.94260025,-10.52721405
1283,-2.454955339,1.672462463,-8.771077156,-54.10597229,34.5839653,-2.077553034
1284,-1.963409424,0.889933944,-9.142653465,-64.17209625,30.72080421,8.555212021
1285,-2.21822691,0.495238036,-9.524726868,-72.48989868,27.8365345,16.40708542
1286,-1.683188558,0.010568641,-9.566289902,-82.29146576,24.37042046,22.1803093
1287,-1.345049858,1.495743752,-9.449515343,-80.3093338,12.39214802,20.81341553
1288,-1.229058862,2.546759367,-7.979471684,-94.22853088,14.53555298,27.3656311
1289,-1.249818325,1.72038269,-7.755651951,-124.356781,16.18636703,37.59400177
1290,-1.125955582,2.055346012,-8.728834152,-135.6509399,15.63253117,51.3947258
1291,-2.58029294,2.602964163,-9.266349792,-139.5965424,15.74837399,56.28222656
1292,-3.082684994,2.242123365,-9.56873703,-146.4128723,18.39364815,57.5247612
1293,-2.792734623,1.121163726,-9.61822319,-149.013443,20.98386002,58.4378624
1294,-2.392117739,1.750905275,-8.943968773,-142.7760162,31.92128181,57.51615524
1295,-2.802476406,3.320364952,-9.064189911,-127.7546997,33.45379639,58.1728096
1296,-2.42820549,3.651889086,-9.799077988,-119.8746567,24.81119728,56.62078476
1297,-2.226864576,3.453977823,-9.26397419,-122.45047,21.43595123,54.51833725
1298,-1.06491673,4.960991383,-9.514154434,-127.2479248,12.26573944,54.87127304
1299,-0.733076453,5.773118496,-8.191876411,-146.9126892,17.14046478,52.70565796
1300,-1.005734324,5.222619057,-7.645229816,-176.5240326,17.75726509,53.95230484
1301,-1.572272897,5.886497498,-8.042900085,-187.4159088,17.95058632,48.39268875
1302,-1.731515765,5.995603561,-7.518321514,-183.5432434,16.99721718,40.79439163
1303,-1.580426335,6.786643505,-6.345934391,-194.7086792,14.27355385,39.47176743
1304,-1.604749322,7.285826206,-6.924838066,-199.8995667,5.068333149,36.91615677
1305,-1.918655753,6.971663475,-7.119772911,-184.0031738,-8.826910973,41.31657028
1306,-1.891708374,5.977410793,-6.547464848,-169.8022766,-16.82114029,44.80734634
1307,-1.392182231,5.384988308,-6.014942646,-151.5839233,-19.45914078,39.49194717
1308,-0.605038106,5.456774712,-5.150910378,-132.0971222,-23.50852013,36.70410156
1309,0.243722275,5.859433174,-3.875951529,-120.4938965,-20.34516907,28.31704521
1310,1.060110211,6.109207153,-2.950596571,-119.8106995,-19.53974342,16.6631012
1311,0.515814483,7.364552975,-3.785782576,-93.18364716,-43.26105881,11.11464596
1312,-1.238512158,8.13914299,-4.866584301,-34.38241959,-73.17855072,11.0611496
1313,-1.669510603,7.470571995,-4.606575489,-6.456562996,-80.60823059,10.88136959
1314,-1.529546857,7.215159416,-5.508500099,3.176484346,-60.62366104,8.151163101
1315,-1.141951084,6.449551105,-5.364419937,17.38920403,-32.50757217,3.121030807
1316,-0.558626831,6.47803688,-3.850837708,21.68166161,-4.907492638,-9.565069199
1317,0.734339893,7.353200436,-2.791196108,29.74360275,12.80765915,-24.99446678
1318,1.104353786,9.352138519,-2.365260124,36.66070175,13.31909275,-37.95667648
1319,0.630313694,10.55670834,-2.578384638,61.29356384,-9.514195442,-27.40104485
1320,-0.321956009,9.752084732,-2.962153196,75.55483246,-32.77760315,-18.13966179
1321,-0.47146678,9.294671059,-3.70028758,64.69804382,-41.75424194,-17.68521309
1322,-0.467438161,9.271770477,-4.70878458,62.3136673,-46.06576538,-24.50202751
1323,-0.462198317,8.443928719,-5.773675442,62.09404373,-42.45805359,-32.32830811
1324,-0.343242794,6.756298065,-5.756242752,68.36155701,-32.20545197,-39.44380951
1325,-0.213795871,6.876514912,-5.217933178,79.20063782,-29.83332062,-41.3778038
1326,-1.15318656,8.460231781,-5.645871639,79.88912964,-30.05633354,-37.23604202
1327,-0.839185655,8.659823418,-6.195524693,68.75536346,-12.88497162,-37.58787918
1328,0.527834117,7.215942383,-6.678944588,40.56043243,4.502803802,-35.90812683
1329,-0.309308916,7.167224884,-7.754097462,19.29844666,12.43156719,-26.2491684
1330,-0.889812946,7.28614521,-7.345245361,24.14118385,15.81425285,-20.20575523
1331,-0.167834908,6.469543457,-6.711057663,17.25538635,22.90602875,-15.28147793
1332,-0.041813128,6.986809254,-7.487332344,11.37877941,27.30398941,-8.062160492
1333,-0.917028189,7.005765438,-7.86845541,20.93707085,38.16671753,-4.191777229
1334,-2.032645702,6.486590862,-8.757276535,39.04774475,35.83662415,1.652426243
1335,-1.942141533,5.874027729,-9.033104897,51.73785782,46.26371384,3.473390818
1336,-1.200759768,5.388120174,-6.951724529,48.13187408,64.08335114,-2.60571599
1337,-1.746775389,4.915192127,-7.231218338,63.59667587,55.70682526,-6.618245125
1338,-2.384066105,4.491633892,-8.492014885,94.39253235,25.53780365,-11.6386919
1339,-2.689171314,4.532040596,-8.684567451,120.1198578,6.889992714,-21.39933205
1340,-1.259932637,4.913305759,-6.881438732,118.2506714,16.74466133,-29.28137398
1341,-1.191514969,5.302075863,-6.39209795,103.1401367,23.17875481,-34.57781601
1342,-2.301915884,5.063412666,-6.670470238,105.3602142,7.813925266,-35.65196991
1343,-2.623282909,4.05971241,-6.648239136,104.4935455,-6.230602741,-39.48680496
1344,-2.244507551,3.462331772,-7.067271709,104.1336899,-18.26597786,-41.93844986
1345,-1.969424963,2.966904163,-7.016952515,101.2116776,-18.44223404,-40.74519348
1346,-2.610743046,3.155805588,-7.388838291,98.46534729,-14.51271439,-42.14313126
1347,-2.776654959,2.834804773,-7.225232601,95.27523041,-13.72331429,-40.71998215
1348,-2.378051758,2.787706375,-7.140985966,84.84941101,-15.96890068,-37.48110199
1349,-1.862460136,3.097907066,-7.91207695,77.53985596,-11.24837303,-33.48077774
1350,-1.760138512,3.410644531,-8.654840469,77.87437439,-10.4139452,-28.98869514
1351,-1.783060551,2.902632713,-8.245985031,76.39165497,-6.086473942,-26.41169739
1352,-1.414182067,2.310714006,-7.94637537,76.66986847,0.930563331,-29.31258392
1353,-1.392955661,1.126425028,-8.17972374,83.55577087,5.451531887,-33.67759705
1354,-1.489796758,0.728532791,-8.833591461,102.6632614,-2.321800232,-38.95461273
1355,-2.070714235,1.36000073,-10.05963039,130.5024109,-11.93630981,-44.44874191
1356,-3.613604784,1.274679661,-10.79089165,145.436142,-9.068265915,-44.92736816
1357,-3.803461075,0.299678743,-10.00712013,141.0955048,-0.579172969,-42.12325287
1358,-2.628118515,-0.928136826,-8.034690857,124.9863129,13.79042149,-42.92818832
1359,-2.002590656,-1.314979672,-7.980481148,132.1902313,27.10037422,-51.52506256
1360,-1.715723038,-1.308525085,-8.317187309,176.6907654,18.30686569,-61.62834167
1361,-1.808325291,-1.646378636,-8.70088768,206.4696045,20.82618523,-62.79311371
1362,-1.821781635,-2.122030497,-9.137889862,209.4474792,19.25709343,-60.5449028
1363,-1.451292872,-3.229148865,-9.459795952,207.1686249,13.29452324,-58.32972717
1364,-2.10693574,-4.009756565,-9.6326437,198.4962616,11.75218201,-54.05558014
1365,-3.040749788,-3.822026968,-10.18433285,190.7480621,15.17764187,-53.26088715
1366,-3.161380291,-2.427392244,-10.23305035,191.306015,7.477353096,-54.43266296
1367,-1.923956871,-2.957413912,-9.106463432,184.294754,9.719257355,-51.18185043
1368,-1.565174341,-4.401979923,-8.635848999,154.8650818,20.97002602,-44.77506256
1369,-1.297510386,-4.867839813,-9.06433773,119.4292755,27.33423233,-42.83506775
1370,-1.085636139,-3.86523366,-8.947322845,102.8423538,32.62882614,-37.93693542
1371,-1.492698431,-3.322424889,-7.652745724,81.24084473,28.26062202,-23.99155045
1372,-2.184975386,-3.528255701,-7.798548698,50.39456558,13.18045139,-15.01441097
1373,-1.379596949,-4.871957779,-8.308291435,35.20694351,-4.210836887,-7.701273918
1374,-1.10195446,-5.398269653,-7.338779449,-0.016200034,-4.5061059,3.519499063
1375,-1.327617407,-4.586956501,-7.448818207,-37.71431351,-11.70428944,15.19258595
1376,-2.076094389,-4.587100029,-6.815594673,-58.03377533,-4.274850845,23.18070793
1377,-2.1534729,-4.409341812,-7.285306454,-79.40654755,-13.93748951,30.29779434
1378,-2.1862185,-3.3498981,-9.420668602,-82.84029388,-9.479830742,30.86119652
1379,-1.396259427,-3.939472198,-8.728403091,-90.05996704,-5.170396805,31.64725494
1380,-0.669672132,-3.345921755,-9.464536667,-128.6489716,-11.24115849,42.17607117
1381,-0.162820891,-3.212697744,-9.823029518,-161.4533234,-8.268754005,53.7511673
1382,-0.679400623,-3.7635777,-9.574139595,-182.71875,-5.410171032,59.61611938
1383,-1.251186848,-2.700506926,-10.52846146,-186.5750275,-3.596364021,64.56239319
1384,-0.762443483,-3.495595455,-10.70900249,-189.9639282,-12.45905781,66.20620728
1385,-1.082001805,-3.859059572,-10.60974026,-182.3303223,-11.9314642,67.21861267
1386,-1.850911379,-3.887501478,-9.579646111,-166.5034332,-17.29365158,60.46679688
1387,-1.392078757,-4.308180332,-9.013528824,-134.4516907,-31.6323719,51.94064713
1388,-0.605445325,-2.881934404,-8.46575737,-103.9087524,-39.35837936,42.85507202
1389,-0.670008481,-1.510031462,-9.459754944,-87.50321198,-41.82170868,33.99198914
1390,-1.565469384,-3.123539448,-9.974697113,-83.72463226,-31.14349174,25.57387352
1391,-1.459623933,-3.55773735,-10.26280785,-57.88575745,-23.26601601,14.01485062
1392,-0.848809123,-2.991828442,-9.848015785,-32.98463058,-12.3213892,3.731664896
1393,-0.844516158,-2.856804848,-9.430540085,-25.94482803,0.048158389,-3.889168978
1394,-1.14742744,-1.922691584,-9.496112823,-7.283849716,7.736868858,-14.93256474
1395,-0.562458515,-0.609919727,-9.677054405,9.711701393,2.00279665,-25.67233086
1396,-0.477169573,-0.406137705,-8.966257095,20.01644707,2.580202818,-29.64808846
1397,-0.694643199,0.393791467,-8.714146614,21.82881355,5.408588886,-29.45243835
1398,-0.36151281,1.090934157,-9.035563469,10.88367176,14.45089054,-24.66494179
1399,-1.126140356,1.10248661,-9.041758537,2.666952372,22.93385124,-25.3225708
1400,-2.040636778,0.997811973,-8.608802795,8.290843964,25.93427277,-29.16246986
1401,-2.079583645,0.971150577,-8.332277298,20.05200386,14.44367123,-24.67380333
1402,-2.518139601,1.501420379,-8.755304337,12.2998991,7.917174816,-17.56053352
1403,-2.449582338,1.117318392,-8.900541306,-6.087182522,7.286645889,-9.911968231
1404,-1.942780972,1.776844025,-8.725502968,-28.74654961,3.108385324,-1.807211757
1405,-1.487555861,2.21199584,-8.379288673,-51.45373154,6.397530079,5.894927979
1406,-1.054488659,2.232098818,-8.478425026,-73.28943634,9.518489838,14.57565308
1407,-1.620709538,2.260063171,-8.703262329,-85.57092285,15.62705421,23.54837799
1408,-2.444202185,2.669898272,-8.674949646,-89.05649567,13.90541077,32.00159836
1409,-2.506299496,3.2019279,-7.961588383,-100.9197998,11.79659557,39.60197449
1410,-2.268893957,2.867329836,-9.058467865,-112.469368,4.512583733,46.01710892
1411,-1.610376358,2.685438395,-9.71342659,-114.0447311,5.930481911,45.75704575
1412,-1.83561039,2.467100382,-9.156157494,-117.2714233,19.44504738,43.24161911
1413,-1.871295452,3.574093819,-9.385601997,-117.9750443,20.19510841,41.088974
1414,-1.898302317,4.582390785,-9.698013306,-111.5692825,22.92658043,41.43476105
1415,-1.86558187,3.522644281,-8.108620644,-129.2091675,29.1746273,45.26870728
1416,-1.908372998,3.71449542,-8.80997467,-158.1957855,25.77737045,54.05506516
1417,-1.552023053,4.209719658,-9.299668312,-161.1296539,17.90097809,59.75881577
1418,-1.363129854,4.140944958,-8.710968018,-177.5660706,17.17124557,57.35526276
1419,-1.477939367,4.615102291,-8.350219727,-204.0829468,10.16269684,52.75547028
1420,-1.588901162,5.563910007,-7.660038471,-217.2519226,7.229588985,50.11740494
1421,-1.368056417,5.693979263,-7.623219013,-213.0493164,9.073106766,48.55122757
1422,-1.039843202,6.214165211,-7.063966751,-213.2160187,6.952674389,43.95012665
1423,-0.682574093,5.953407288,-6.737969398,-221.3665771,5.325105667,39.03446198
1424,-0.75131011,5.091470242,-7.089754581,-206.4944916,3.106166363,33.65858459
1425,-0.694136918,5.236597538,-5.255319118,-171.098053,-7.333257675,34.64260864
1426,-0.400892854,6.377580643,-4.639258385,-128.980011,-28.51748276,36.90866089
1427,-0.179458544,6.413383007,-4.355383396,-97.46759796,-31.05851936,37.76750565
1428,0.501840889,5.684648037,-3.49009943,-82.66978455,-30.16457367,26.21524239
1429,0.897074223,5.980302334,-3.700161219,-68.66648102,-33.46173859,11.6900816
1430,-0.176833048,7.365887642,-5.400580406,-25.53393936,-55.01984787,6.498724461
1431,-2.103144646,7.386227131,-5.634795666,16.42635727,-77.19270325,7.051197529
1432,-2.249163628,7.284655094,-6.499187946,43.41138077,-75.61384583,7.074962616
1433,-1.310690045,6.349523067,-6.61727047,63.32571793,-48.14260483,5.218697548
1434,-0.430457741,4.976859093,-4.273524761,63.80174637,-6.586047649,-14.27153778
1435,0.409695208,6.490122795,-3.017898321,48.24017715,33.12023926,-37.85174942
1436,0.445304215,10.43554974,-3.083242655,58.49288177,27.8092041,-48.88793182
1437,0.227142349,12.72248459,-3.884210587,68.61278534,-0.426179349,-41.04600143
1438,-0.224615976,10.73267555,-3.381603241,74.27039337,-33.27042007,-25.9576664
1439,-0.802978158,8.572486877,-3.106704235,76.24904633,-39.77701187,-29.75406265
1440,-0.650141478,9.146647453,-5.528906822,93.47177124,-49.16810608,-43.19617844
1441,-0.706368923,8.40806675,-7.158471107,123.6438141,-67.16030884,-48.71644211
1442,-1.451556683,7.522511482,-6.619508743,136.235672,-74.43450928,-42.21559143
1443,-1.116155386,7.292616844,-7.146375179,123.0169373,-69.25353241,-46.13932037
1444,-0.389948547,7.584199429,-7.275502205,87.07247162,-47.29262161,-47.39789963
1445,-0.590680718,5.888173103,-7.040946484,38.65154648,-11.310606,-39.98181534
1446,-0.65990907,6.300188541,-7.719687939,18.16475296,2.794592619,-26.88767433
1447,-1.545955658,7.20109129,-8.35045433,8.276986122,-1.507526159,-13.6680603
1448,-1.736402273,7.468454361,-8.435624123,5.095696449,-15.71242142,-3.036798239
1449,-1.066550493,6.386657715,-8.407288551,3.407793045,-16.90660477,8.903273582
1450,-0.474519283,5.421591759,-8.150993347,-3.222348928,-2.716446638,15.01584816
1451,-1.020550132,5.784965992,-9.05708313,-12.39203644,19.25232124,16.57432747
1452,-1.911768436,6.669998169,-9.840186119,3.717442751,36.09765625,19.01248932
1453,-2.157036066,6.22177124,-6.886434078,12.61250687,52.1351738,17.56712151
1454,-1.133076191,5.906569481,-6.105066776,11.93567562,45.2560997,13.90051651
1455,-1.261862159,4.705136776,-6.99077034,27.46787453,21.52529144,12.51810741
1456,-1.176293969,3.863888502,-6.911235809,34.96614075,12.14142132,7.845753193
1457,-0.783173203,3.557957649,-6.895367622,40.48641205,17.54163551,-1.726269245
1458,-0.984474182,2.864062071,-7.019318104,54.37108994,27.06914902,-10.13737202
1459,-2.243294716,2.986816645,-6.871472836,76.37115479,34.87206268,-17.99026299
1460,-2.724395514,3.426296234,-6.281952381,90.64915466,34.92107391,-30.01038361
1461,-2.098742723,3.408516407,-6.509766579,96.82836151,27.4899044,-35.70288849
1462,-1.987306833,3.077418566,-7.464622974,102.1838379,19.20747375,-34.7686615
1463,-1.400763392,2.714055538,-7.739449978,106.0525055,15.88260937,-36.89448929
1464,-1.308956265,3.422774076,-7.20452261,92.3740387,27.06672096,-33.74056625
1465,-1.333695412,3.969449759,-7.963367462,74.65159607,35.51000214,-29.65727997
1466,-2.247424603,3.329479456,-9.968383789,81.81749725,40.22784805,-25.95693588
1467,-2.948217154,1.695156336,-11.53602886,122.5130081,23.98342323,-31.21140671
1468,-2.438969374,1.254896402,-10.77859306,165.3230896,11.30007362,-34.34351349
1469,-2.059607506,1.642531157,-9.28546524,179.3396301,8.536050797,-36.15726471
1470,-1.961923361,0.723055363,-8.641500473,187.6594696,9.715820313,-48.12268066
1471,-2.065449476,0.026898861,-8.162530899,191.9037933,13.98265839,-52.33929443
1472,-1.664620876,-0.321622789,-8.398048401,209.6573181,10.44417858,-51.91954041
1473,-1.351375818,-0.242271811,-8.194604874,224.1496735,5.944131851,-51.43157196
1474,-1.408199549,-0.52352643,-8.312298775,230.1564789,15.08277225,-53.25777435
1475,-1.464197993,-1.648593903,-8.192970276,233.1981506,16.46944237,-53.09799576
1476,-1.380215049,-3.014254808,-8.697852135,240.4733887,8.572987556,-59.84826279
1477,-1.517560124,-3.771602392,-9.548946381,244.4210205,13.54211903,-62.44745636
1478,-2.232251883,-3.688688517,-9.992099762,236.1279755,11.23072052,-59.46538925
1479,-2.269620657,-4.036884308,-10.19268322,230.0832062,3.870023727,-59.36746597
1480,-2.023919344,-3.913873911,-9.844550133,225.0532227,-8.282936096,-54.88044357
1481,-1.449623346,-2.899616003,-9.246775627,197.448349,-3.36993432,-51.352211
1482,-1.011135221,-2.024078131,-9.986001015,130.8894196,3.501995087,-41.71951675
1483,-0.995584548,-2.995669365,-9.047980309,95.76040649,10.26212597,-34.24641418
1484,-1.186262131,-4.028953552,-8.191718102,81.59126282,15.91377544,-28.56965828
1485,-1.320011497,-4.005104542,-7.936108112,59.01237106,4.991190434,-20.86001968
1486,-1.565457463,-3.755441189,-8.097764969,51.58182907,-1.564093709,-13.53037739
1487,-1.644578815,-3.856847525,-8.080162048,30.10360527,-7.216711521,-7.772393227
1488,-1.186974645,-4.456617355,-7.560818672,1.496108294,-2.894952297,0.563562572
1489,-0.949671805,-5.883755207,-6.280091763,-27.76477814,8.743697166,6.698977947
1490,-1.319232225,-5.120175362,-6.492773533,-50.81387711,3.578379631,16.48891068
1491,-1.717234492,-4.315522671,-7.601700306,-53.26288605,-8.339118004,20.17716026
1492,-1.438563466,-4.810140133,-8.049069405,-63.02404785,-18.27204704,25.66644478
1493,-0.94770658,-4.109049797,-8.850326538,-93.09151459,-24.61106491,33.10497284
1494,-0.601167977,-4.071739197,-9.504961967,-129.4333344,-25.33917999,45.56543732
1495,-0.580972493,-4.757164955,-8.691214561,-174.7728729,-14.50078011,54.59556198
1496,-1.230827808,-2.798266411,-9.428406715,-191.141861,-7.307389736,59.8910408
1497,-1.730015993,-3.282411337,-9.868993759,-194.5462036,-15.28390789,65.35746765
1498,-1.540529251,-4.90662384,-9.900856018,-202.7341309,-17.40165138,65.71701813
1499,-1.439829111,-5.56709528,-9.113042831,-185.5942535,-24.67405128,59.07227325
1500,-0.974000812,-4.36386776,-8.963843346,-147.4223022,-38.32891083,53.95424271
1501,-1.133031487,-3.2287848,-8.773340225,-115.1989822,-59.55503082,47.37048721
1502,-1.452126861,-3.150158405,-9.731786728,-101.2108383,-73.07713318,40.32357025
1503,-1.93739748,-3.668112993,-10.29395485,-88.82584381,-69.4030304,36.45064545
1504,-2.190382242,-4.721165657,-11.00156307,-65.53087616,-62.99477386,28.54463196
1505,-1.621231079,-3.388524055,-10.66591644,-26.95850754,-49.48697662,14.20529842
1506,-0.797907829,-2.269889832,-9.928730965,-6.345244884,-37.2209816,2.221586227
1507,-0.964617252,-1.566840649,-9.401194572,-3.718523741,-23.40023422,-4.973638058
1508,-1.510668397,-2.211165667,-8.488725662,-2.740408659,-6.389736176,-18.04246712
1509,-0.459391236,-2.229859591,-8.813937187,19.7085495,-0.492265344,-28.54661369
1510,-0.001438012,-1.227642655,-8.677278519,42.83744431,0.358216405,-31.74838638
1511,-0.590800107,-0.157946348,-8.507300377,46.0627861,6.001191139,-30.21555138
1512,-0.865523875,-0.643060505,-9.115468025,41.27562332,12.80595303,-23.52378845
1513,-1.288306236,-0.314564437,-9.570858002,42.37706757,21.34479523,-21.1660099
1514,-1.348380566,0.76977402,-8.559950829,27.50345612,27.1948204,-24.70005608
1515,-1.614210606,0.827040732,-7.769467831,14.50020504,24.60370827,-23.13000298
1516,-1.768642187,-0.155539051,-8.000452995,12.74422455,15.48769855,-16.28760338
1517,-2.239583492,0.405137897,-8.9941082,12.34319496,14.48117924,-10.31035805
1518,-2.10695219,-0.268696308,-9.235484123,-9.25683403,22.31358337,-7.64328146
1519,-1.495509505,-0.070406064,-9.070506096,-36.67193985,15.17388725,3.59995532
1520,-1.423658848,-0.125535235,-9.067185402,-65.66875458,10.67640114,15.55260181
1521,-1.775073409,0.171937019,-8.795778275,-79.96182251,15.53927326,26.99157143
1522,-1.986179352,0.748570442,-8.296886444,-93.89826202,28.05362701,39.97545242
1523,-2.292492151,2.729677677,-9.624201775,-121.4699326,17.49381447,49.62285995
1524,-2.595181942,3.629636526,-10.36928654,-137.6357269,19.97191811,58.70757294
1525,-2.356725693,2.426393986,-9.064712524,-158.2065582,28.4649868,58.47109985
1526,-2.170920134,1.742087126,-8.431526184,-174.3203278,41.01593018,58.7030983
1527,-3.167713642,2.015413761,-9.923828125,-168.3566589,29.66766739,55.92641449
1528,-3.37915659,3.34885335,-9.989926338,-170.4120941,17.33137703,59.69710541
1529,-2.160984993,4.587599277,-9.758289337,-192.9773865,11.18896675,67.39852142
1530,-1.816137433,4.69672823,-9.762566566,-220.6656494,4.008404255,74.12893677
1531,-1.969178438,3.796916962,-10.143116,-238.0492859,1.098216057,80.41740417
1532,-1.867467761,3.207506895,-9.607819557,-250.7134857,9.911754608,78.31102753
1533,-1.935551405,4.73041153,-8.816345215,-264.2196045,15.40943241,67.76058197
1534,-1.310139179,5.821149349,-8.023515701,-267.4075928,22.94144249,56.7628479
1535,-1.212835431,6.092094421,-6.565933704,-265.0407715,21.74743271,47.89948654
1536,-1.483034849,6.60219574,-6.708558083,-257.6307983,6.511728764,40.65293503
1537,-1.510554314,6.58597374,-7.164019108,-234.4085388,-8.321805,39.93128586
1538,-1.229176402,5.789366245,-6.523652077,-203.8689575,-22.59572792,40.51573944
1539,-1.052902818,6.044056892,-5.701349735,-168.0611572,-34.60537338,38.96786118
1540,-0.918367505,6.218296051,-4.982133865,-129.3819885,-43.67937469,42.97679138
1541,-0.299762428,6.122219086,-4.092498302,-93.87347412,-55.07235718,34.95278931
1542,0.543489575,6.193029881,-4.737743855,-62.66876221,-65.40847778,21.42570496
1543,-0.030568145,6.67280674,-4.823592186,-25.04628181,-82.46994019,15.37614632
1544,-1.848595738,6.629005909,-4.443697929,4.222818375,-80.04701233,10.89056015
1545,-2.40693593,7.133265495,-5.231248856,18.63105011,-63.18943405,6.312571526
1546,-1.594062209,7.219931126,-5.319927692,36.84263611,-50.5545845,5.21838522
1547,0.248543456,6.469538689,-3.036036253,47.39981461,-35.73538208,-10.21647453
1548,0.546157718,6.970912933,-2.168864727,36.06563187,-6.766516685,-28.2429409
1549,0.208271593,10.74129677,-3.464717627,64.8910675,-16.71007538,-37.64740753
1550,-0.075119779,11.28371716,-1.97727561,80.91845703,-20.30849075,-34.20340347
1551,0.377739161,9.770942688,-1.213550091,40.5155983,-9.372293472,-33.69277191
1552,-0.010968626,9.350378036,-2.674935818,41.9356842,-27.24858093,-32.75144958
1553,-0.611039519,9.714305878,-3.963870764,96.86035919,-52.39532089,-38.63581085
1554,-0.208589479,8.817704201,-5.041526318,123.9117355,-66.16049194,-43.82552719
1555,-0.363476574,8.327293396,-5.782422066,112.3194046,-65.68630219,-46.1282196
1556,-0.7766909,8.813567162,-6.543804169,85.11663055,-52.06101227,-47.08465195
1557,-0.798281431,8.930666924,-6.312990665,60.11810303,-33.38763428,-44.18487167
1558,-0.900031626,7.481424809,-5.693757534,35.18717575,-14.11897087,-36.28158569
1559,-0.602363825,7.010951519,-6.245911121,15.65398121,5.018145084,-31.37963867
1560,-0.833781302,6.551204681,-7.139602184,13.18336964,13.08310795,-25.0438118
1561,-1.554405212,6.797445297,-7.259462357,17.18021584,15.06630325,-20.13028717
1562,-1.052982092,6.349247456,-6.510679245,7.383470535,15.86355686,-15.80659771
1563,-0.920655727,5.823766708,-6.804831505,0.634484589,10.37347603,-8.541405678
1564,-1.346428514,4.927083015,-7.534201145,14.98301697,9.790830612,-3.039603472
1565,-1.699420094,4.458852291,-8.088271141,43.30917358,7.531061649,0.507333398
1566,-2.384541988,5.187504768,-8.282051086,66.43019867,22.04719925,-5.638221264
1567,-2.07500577,5.450406075,-7.191587925,79.00234222,38.87885666,-11.50847912
1568,-2.02885437,5.017901897,-6.864156723,87.34768677,37.81413269,-15.04709435
1569,-1.826065779,3.708267689,-6.860362053,90.94400024,30.69946098,-15.09622955
1570,-2.454907656,3.993711233,-6.886377335,97.1607666,25.26730156,-19.55290604
1571,-2.14794302,3.29639411,-6.929071426,103.4764862,23.89951134,-27.61952019
1572,-2.401892662,3.076950073,-7.125329494,112.5338821,24.36372375,-35.69183731
1573,-2.773386478,3.738536358,-6.802200317,125.541748,22.91609001,-39.2446022
1574,-2.988866568,4.324836254,-7.096861362,118.032608,19.80621719,-38.17370987
1575,-2.503594875,4.20744133,-7.96331501,104.5903549,14.23367596,-37.14646149
1576,-2.481451511,2.7279737,-7.866287231,93.73791504,14.74791527,-36.84393311
1577,-2.017984152,2.369406462,-7.741517544,94.67041016,18.60111618,-38.55504227
1578,-1.968518496,3.434968948,-7.782312393,98.0884552,18.21043205,-38.21916962
1579,-2.02938509,3.836950064,-7.6651721,93.69997406,24.97499275,-39.29531097
1580,-2.377806425,2.846485138,-8.391067505,87.26329041,25.17211914,-46.95085907
1581,-2.590705872,1.85864532,-9.605142593,103.4803772,23.93300438,-50.97833252
1582,-2.983286381,1.609175205,-11.09946728,129.0006714,21.45589638,-55.76332855
1583,-3.451189041,1.439815402,-10.66533089,145.6095276,26.81166649,-56.430336
1584,-3.553524017,0.137075737,-9.752907753,150.4644928,37.62434006,-54.93843079
1585,-2.813736916,-1.296480417,-9.143004417,146.2092285,38.49298477,-55.34195328
1586,-1.880344272,-2.065079689,-9.278434753,164.8385315,37.17823792,-59.69468689
1587,-2.321947098,-1.297474384,-9.035995483,191.9489288,35.95301437,-62.46953201
1588,-2.492259741,0.014476895,-9.411905289,219.5340118,34.13140488,-66.62186432
1589,-1.95260489,-1.085442185,-8.931451797,235.3097992,32.29094315,-65.57313538
1590,-1.290723681,-3.149190426,-8.882633209,226.168869,26.00848389,-58.87901306
1591,-1.769403338,-4.056493282,-9.51538372,221.1926117,21.68836021,-58.85827637
1592,-2.16477108,-3.568917513,-9.402279854,216.4947815,24.588274,-58.96075439
1593,-2.235663414,-2.223767757,-9.70827961,210.7269592,20.08272171,-56.05746841
1594,-1.905915618,-2.793376923,-9.514629364,204.3311157,13.03620338,-53.59719086
1595,-1.345284939,-3.82049036,-8.746465683,174.4009247,16.8977375,-48.65042114
1596,-0.630221725,-4.060827732,-8.84058857,125.5668716,22.95698166,-44.82963181
1597,-0.597474694,-3.983961821,-8.633852959,93.48881531,26.26551247,-37.01276779
1598,-1.444418192,-3.646747589,-8.035299301,69.84432983,17.71226501,-27.85819817
1599,-1.996371746,-2.662042379,-8.29505825,45.50148773,8.530467033,-17.35429001
1600,-2.35316658,-3.885721684,-7.860802174,31.3613224,-1.622212052,-6.748600006
1601,-1.345333457,-5.076681614,-6.598851681,0.253994793,-0.354761511,2.390170813
1602,-1.016461849,-4.980198383,-6.252900124,-27.19973183,-3.95977354,11.22488117
1603,-1.233646154,-5.851639271,-5.888658047,-55.6636734,-10.43073559,18.14320564
1604,-1.598698378,-6.070765495,-5.962373734,-78.36490631,-28.44244957,25.33214569
1605,-2.262650013,-4.982301235,-7.138647556,-98.27578735,-50.54053879,28.67228127
1606,-3.064067125,-4.886530399,-9.238998413,-140.9016724,-48.15519333,26.014431
1607,-1.720604658,-3.619281292,-12.10458088,-124.1795044,-53.40884018,30.46744537
1608,-0.011849955,-4.373364449,-10.00527763,-123.0312042,-46.17821121,35.10403442
1609,-0.058068551,-3.611863613,-9.279849052,-149.1813202,-35.13101196,40.73319244
1610,-1.216553807,-3.37273407,-9.650409698,-165.4391174,-26.8903904,42.09573364
1611,-1.007695794,-3.610187292,-9.989794731,-165.0344696,-31.54154015,48.1228714
1612,-0.624513328,-4.30761528,-9.837169647,-149.8559418,-36.9371376,48.64954376
1613,-1.620080829,-4.189912796,-9.899983406,-131.3207245,-40.10478973,37.73721313
1614,-1.431591272,-4.169351101,-9.657336235,-102.0209274,-52.18359375,29.65710449
1615,0.071465619,-2.857034922,-9.375041008,-81.18516541,-60.36172104,23.01921654
1616,0.433938742,-2.191819668,-8.830966949,-79.05901337,-59.21362305,16.66962051
1617,0.384438992,-2.527909517,-9.672462463,-65.3038559,-49.08627319,18.28875923
1618,-0.427759171,-3.56393671,-9.913228035,-48.5873909,-35.24817657,12.27803898
1619,-1.186602116,-2.972776651,-10.566926,-24.05622673,-25.27611351,3.500739336
1620,-2.079492807,-0.475295901,-9.729268074,-4.579069138,-14.50931454,-10.35204983
1621,-1.045133948,0.596568048,-7.972298145,-21.45367813,-5.059966087,-10.24189949
1622,-0.571797729,-0.47865966,-7.933694363,-27.38386154,8.102633476,-5.65857935
1623,-0.33878839,-1.593258023,-8.933702469,-5.900146484,12.79402065,-5.09990263
1624,-1.053862929,-1.186450005,-9.208033562,15.70195961,19.90505409,-7.643104076
1625,-1.383896589,0.855459094,-9.22363472,22.78029442,26.69117928,-5.317193508
1626,-1.479932547,1.269999743,-9.058334351,1.907273769,25.58247185,7.837397099
1627,-2.115030289,0.353466004,-8.420330048,-24.00667381,30.20445251,16.29500771
1628,-2.07226181,-0.019035004,-8.461647987,-31.05720901,31.77971649,13.02774811
1629,-2.00508523,0.636364877,-8.725258827,-24.1386528,29.45437431,10.06380272
1630,-2.359778166,1.20385313,-9.039284706,-25.20590591,22.42007828,17.56132698
1631,-2.814639568,0.070264064,-9.549937248,-33.73003769,16.65203476,22.16817856
1632,-3.259310722,0.265993118,-9.867848396,-38.49825668,16.4016571,25.10731888
1633,-2.686983585,0.612328827,-9.167744637,-36.35923004,15.50418949,22.36919975
1634,-1.289711118,0.841326356,-8.383496284,-52.79247665,8.759619713,25.64160538
1635,-0.984672904,1.120247006,-7.826209068,-67.32603455,12.11110687,34.80367279
1636,-2.275509834,1.458830714,-8.245696068,-76.54164886,7.980431557,34.2010498
1637,-2.778962374,1.491020679,-9.785217285,-87.79330444,-6.264792442,41.12646866
1638,-2.660742521,1.800003529,-10.16399097,-82.69507599,-1.973075032,49.82949829
1639,-2.281895161,2.010247231,-8.490180016,-89.82641602,22.18500137,48.04067993
1640,-2.167982578,2.974969387,-8.088950157,-112.7382355,40.52643204,42.69155884
1641,-2.462777376,3.695022345,-9.264831543,-134.574173,24.3063736,50.69407272
1642,-2.857267141,3.65379405,-9.18135643,-136.6605377,15.94100952,55.08795166
1643,-2.167748213,3.92864728,-8.354058266,-160.6649323,17.36097527,60.35585403
1644,-1.390274405,4.950712204,-9.025392532,-194.5039825,10.31948662,67.40950012
1645,-1.474490881,5.226605415,-9.261655807,-222.3641205,7.525165081,69.35301971
1646,-1.406342387,5.114247322,-8.875274658,-234.3508759,3.6543262,69.89012146
1647,-1.73346734,5.69883585,-8.443593979,-241.1031647,3.325451136,69.23442841
1648,-1.865577459,6.030703545,-8.009088516,-249.3002472,10.04673672,61.70433426
1649,-1.153355479,6.3960886,-6.754141331,-257.0935669,13.56576443,54.01512527
1650,-1.249460697,7.130902767,-7.323794842,-246.0639343,4.391897678,51.2143631
1651,-1.615951657,6.787679672,-7.266476631,-225.4445038,-4.955281734,47.56003952
1652,-1.066774249,5.984975815,-6.983710766,-206.0432892,-9.02858448,44.03064346
1653,-0.587458253,5.269808769,-5.777083397,-181.0806885,-8.338954926,38.30181122
1654,-0.144470349,5.485001564,-4.522247314,-151.894043,-9.669912338,32.08364105
1655,0.275419563,5.837304115,-4.108830929,-131.7303772,-11.26916599,24.58229828
1656,0.467732728,6.723987103,-4.765347004,-101.4998779,-25.66454887,18.94377518
1657,-0.154546618,7.284902096,-4.784177303,-54.66194153,-45.60627365,13.47459698
1658,-0.984964132,7.202478886,-4.126824379,-32.56027985,-48.43749619,5.717815876
1659,-1.068475962,6.580122948,-3.970480204,-24.49836922,-38.79022598,0.427946568
1660,-1.355045795,5.865879059,-4.208545208,-9.920827866,-18.37745094,-7.284853458
1661,-1.159098387,6.550142288,-4.722517967,16.10519791,-11.99975109,-12.32101154
1662,-0.910997629,7.0725317,-3.629394054,55.93437958,-2.194895029,-21.57581902
1663,-0.46766746,8.14247036,-2.471907139,78.35167694,0.234739676,-27.6836586
1664,0.172560528,8.786261559,-1.996165633,79.73453522,-6.742970943,-29.04155922
1665,0.731367171,10.00843239,-2.175066948,73.96144867,-22.98241997,-23.71236038
1666,0.258360177,11.42875385,-2.367707729,64.21213531,-45.67622757,-16.3417511
1667,-0.917706728,11.38705826,-3.510170221,68.84363556,-60.8098526,-11.63812256
1668,-0.917565227,9.047896385,-4.645619869,98.7937851,-66.64958191,-20.6639328
1669,-0.387990355,7.393472195,-5.057963848,106.7837067,-63.80971146,-27.12871361
1670,-0.123727925,8.425861359,-5.311698437,102.5606918,-62.5334549,-26.4925251
1671,-0.827490866,10.01388741,-4.97490406,86.29156494,-49.75107193,-25.11697578
1672,-0.470995426,9.596628189,-5.9217906,67.9983902,-41.79294968,-27.74250221
1673,-0.297108024,7.028327942,-6.063336372,65.46911621,-32.73112106,-23.42584991
1674,-0.461637318,6.203089714,-6.150223255,55.8351059,-29.59845352,-13.56870461
1675,-0.49770844,6.868749619,-7.239938736,36.31669998,-20.75325012,-11.82648563
1676,-0.585884869,7.677842617,-7.213207722,29.6019249,-11.5351963,-7.496032715
1677,-0.745398879,7.960112572,-6.686414719,17.87998962,-8.188315392,1.243491888
1678,-0.800406754,8.127848625,-7.834972382,23.0635643,-8.669675827,9.020399094
1679,-0.867897034,6.334479332,-7.247619629,29.7912426,9.354693413,7.660471439
1680,-1.203453898,5.273488045,-7.338460922,33.04609299,32.21419907,3.23116231
1681,-1.099627614,6.835063934,-7.008759022,47.95720673,44.55276871,-4.089513302
1682,-1.513267398,7.291687965,-5.912047386,54.94169235,40.07511139,-7.751543522
1683,-1.499051332,6.220153332,-7.033046722,66.06533813,15.77369499,-11.23699093
1684,-0.956351697,3.497544765,-6.502564907,54.46355438,22.07792473,-14.49241352
1685,-1.193623185,3.417831898,-6.770465374,57.38037109,23.08032417,-15.63968372
1686,-1.630154848,3.641299486,-6.665656567,72.99559021,20.75030327,-23.74279404
1687,-1.963605642,4.720972061,-7.064035892,84.61390686,20.09847641,-34.60607147
1688,-2.54156661,3.906977892,-6.697543621,86.67062378,23.65373993,-37.77091599
1689,-2.321401834,2.711108685,-6.633160114,78.9972229,20.67206001,-36.35854721
1690,-1.361232162,2.325018883,-8.106076241,81.45147705,31.11457253,-32.93984604
1691,-1.369768977,2.87273407,-8.764451981,90.37577057,53.13467789,-32.2871666
1692,-2.173638105,4.115799427,-9.038230896,117.2936096,56.4609642,-32.68897629
1693,-2.412575722,3.924623966,-7.728095531,129.6291656,61.3534584,-33.24457169
1694,-1.73754847,4.131608486,-6.931517124,122.5025482,64.70045471,-37.68255615
1695,-1.531549811,2.832978249,-8.049548149,139.7150726,55.73433304,-41.36181259
1696,-1.504496813,1.63686955,-8.946227074,161.9794312,38.5526619,-42.15636826
1697,-1.882403493,1.167935371,-9.442774773,181.935318,26.33334732,-47.43954468
1698,-2.90190649,0.71926403,-9.385705948,199.3667145,31.17886734,-55.8825531
1699,-2.480839491,0.782178044,-9.999732018,219.1155548,32.88626862,-60.10396576
1700,-2.199492931,1.208417416,-10.10574436,236.8126678,31.81433868,-62.29506302
1701,-1.21104455,-0.009377688,-9.740193367,242.4554596,30.17376709,-60.84004593
1702,-0.704487026,-1.649966478,-9.710634232,238.7521057,46.81175995,-60.04971313
1703,-1.061303973,-1.677263856,-10.15498734,250.2300415,44.25421524,-59.08632278
1704,-1.092033863,-1.25390029,-10.32811069,258.6737061,34.00075531,-54.08694458
1705,-1.127465487,-2.308952093,-10.20105839,255.6125336,20.72852325,-43.99206543
1706,-1.392695308,-4.110264778,-10.27992725,248.805954,15.19040775,-40.44480896
1707,-1.728685975,-3.928019047,-10.16033649,257.227478,19.53801155,-43.22290039
1708,-1.059677005,-3.015187979,-9.481969833,241.479187,11.88012409,-41.71802521
1709,0.350733995,-3.211353064,-8.910849571,193.8125305,13.84230137,-33.60695267
1710,0.023945097,-4.253658295,-8.690998077,162.8287201,21.99368668,-25.31414032
1711,-0.311057389,-4.143116951,-8.397658348,136.2473602,12.63370323,-17.3409214
1712,-0.389204383,-3.537884474,-7.616787434,96.15679169,5.586270332,-11.87898731
1713,-0.387181342,-3.32786727,-7.819074154,70.75756073,-4.845419884,0.536115348
1714,-1.125967383,-4.52158308,-6.543184757,43.82045746,-8.284678459,3.669896603
1715,-1.599557757,-4.967431068,-6.060900211,5.111227036,-6.743582249,-1.648087978
1716,-1.32983458,-4.138310432,-6.571630955,-16.31027794,-9.796729088,-0.126872674
1717,-0.93304044,-3.213633537,-6.908278465,-32.16795349,-30.40620995,11.24916077
1718,-1.289636731,-3.963317633,-8.531995773,-77.10253906,-56.49472809,24.51362228
1719,-0.25027591,-4.362633705,-8.411690712,-116.3359528,-46.9678421,32.58260345
1720,0.484693974,-3.894663095,-8.1251297,-148.5281677,-33.04856873,40.28926086
1721,0.084507003,-5.429508686,-7.888597488,-168.8140717,-18.80218506,48.5064621
1722,-0.830203772,-5.531742096,-9.073394775,-173.2832336,-20.07104301,49.85072708
1723,-0.837286949,-4.778095722,-10.03272343,-166.0621948,-21.80806923,46.92264175
1724,-0.900830567,-5.436057091,-10.19342899,-162.1186066,-24.02920532,47.7028656
1725,-0.698325694,-6.686817646,-9.977712631,-150.0023651,-29.32864571,48.20337296
1726,-0.754052281,-5.975509167,-9.644891739,-124.4982071,-33.77399063,44.41521072
1727,-0.811830997,-5.07454586,-9.646183014,-106.6154709,-38.44098282,38.8479805
1728,-0.829179049,-3.860329151,-9.181454659,-91.15956879,-45.89607239,30.90125084
1729,-0.792931795,-2.985333681,-8.801757813,-86.79923248,-51.10153961,25.8882103
1730,-1.022220016,-2.808965445,-10.08737183,-79.38130951,-45.47880936,18.97300529
1731,-0.752070665,-3.903358459,-10.50426006,-63.32341003,-28.65357971,8.222811699
1732,-0.845587611,-2.65483737,-9.780446053,-34.96072769,-19.32745171,-0.835388541
1733,-0.862558484,-1.042210579,-8.882144928,-18.35075569,-18.26262093,-7.45453167
1734,-0.729976177,-1.403769016,-9.197748184,-16.78188515,-15.75604248,-7.513577938
1735,-0.280817837,-2.169157982,-9.359431267,-12.78994656,-8.208622932,-9.942669868
1736,-0.070143178,-1.734779596,-9.094956398,-7.374288082,-0.573545814,-15.43471527
1737,-0.050663013,-1.14856565,-8.554990768,-9.297328949,0.245337859,-13.38483715
1738,-0.625531852,-0.960810483,-8.686977386,-15.85897923,5.157629013,-6.712032795
1739,-0.810571373,-0.563409805,-8.76506424,-22.18088341,12.12639523,-9.612366676
1740,-1.07957983,1.301469326,-8.431929588,-26.79715729,19.86305618,-15.30136776
1741,-2.053163528,2.652359486,-7.696231365,-42.37414169,21.20227242,-11.14830017
1742,-2.38312912,2.104567289,-7.741831779,-68.85690308,13.75412273,-1.637396932
1743,-1.663291335,0.440089256,-8.675235748,-89.72285461,5.157745361,6.984252453
1744,-1.334848642,0.036687829,-9.589401245,-95.77959442,-0.522939086,15.92993069
1745,-1.062991381,0.66656208,-9.176854134,-103.7258377,-3.085927725,21.69231415
1746,-1.29884243,1.9316113,-9.013942719,-106.2707138,-0.591717958,35.75904083
1747,-1.246183753,1.926284194,-8.739048958,-128.639679,9.798095703,44.95933151
1748,-1.641839504,2.574815512,-9.497303009,-159.6929321,23.52091599,51.65005493
1749,-1.88610673,2.970655918,-10.75076103,-166.9703217,22.00951195,53.33658981
1750,-1.872261524,2.982367754,-10.8816328,-170.4405518,19.82971191,57.46934891
1751,-2.151304007,2.539461374,-10.2746048,-173.696701,31.41982079,54.21681213
1752,-2.218165636,2.97997427,-9.589960098,-179.682663,35.24857712,50.72606277
1753,-2.243488789,3.707266092,-9.777086258,-176.2571716,29.40760803,50.14159012
1754,-2.355108023,3.926722765,-10.20756245,-169.4958191,14.41925144,52.86492538
1755,-2.154350758,3.741652489,-9.41209507,-172.3222351,10.64250851,55.08078003
1756,-1.511105776,4.74310112,-9.099871635,-185.0410919,6.716137886,53.08232117
1757,-0.836673439,5.320324898,-8.588070869,-194.9947662,10.92786884,55.3014183
1758,-1.085435033,4.718610287,-7.891188622,-201.9456329,15.67266655,53.85363007
1759,-1.352106333,5.321401596,-7.239899158,-207.2924194,15.35220146,50.92849731
1760,-1.225663662,6.719927788,-6.859395027,-205.3843231,9.740649223,47.60255814
1761,-1.237622142,7.833647728,-6.614517212,-201.1544952,1.384630919,43.30267334
1762,-1.01298213,7.705640793,-6.654276371,-202.8257751,-2.915291071,37.48398209
1763,-0.134634733,6.368788719,-6.538722515,-192.083725,-13.25816154,36.67458344
1764,-0.24516955,5.63449049,-5.619452,-171.081131,-19.64008331,37.15326691
1765,-0.553775132,6.466199398,-4.782654762,-155.3670807,-23.96665573,36.16557312
1766,-0.618131399,6.523822784,-4.243915558,-120.2070007,-31.26668739,34.45511246
1767,-0.164256781,6.612632751,-2.897476196,-96.67235565,-47.12339783,25.99534416
1768,0.447306097,8.488032341,-3.911139488,-61.4265213,-66.54288483,23.57551956
1769,0.035762589,8.457065582,-4.155800343,-15.27684212,-78.51777649,18.92633247
1770,-0.165692672,6.369541168,-2.442368746,-6.107153416,-57.96797943,4.24445343
1771,-0.526441574,5.387677193,-2.727828741,-5.238149643,-31.74379539,-7.199949265
1772,-0.538360775,6.038419724,-3.947561741,37.11075974,-38.90823364,-15.36579132
1773,-0.180287346,6.313660622,-3.001191139,82.89881134,-33.53572083,-29.81567764
1774,0.453391254,7.719611645,-2.582772493,95.68200684,-25.94986534,-38.81689072
1775,0.774637997,9.497245789,-2.299084187,104.835289,-37.08187485,-37.18940353
1776,0.647660136,10.76036835,-2.716617346,89.72972107,-46.63733292,-34.49339294
1777,0.951063454,10.78440666,-3.110313892,56.68179703,-43.85352325,-37.86930084
1778,0.689419508,9.838845253,-4.381714344,47.6562233,-38.84494019,-52.5108757
1779,-0.666591287,7.247302055,-5.978998184,94.3624115,-38.98856354,-63.65008163
1780,-1.172790527,5.792676926,-5.683314323,143.7321014,-54.15476608,-65.28256989
1781,-1.167463899,6.892933846,-5.862824917,130.629303,-51.05455399,-63.44716644
1782,-1.589448929,8.569487572,-6.914505482,111.2955093,-35.69316101,-54.75984192
1783,-1.911107063,7.813434601,-6.806981564,92.78074646,-19.5025177,-44.42331696
1784,-0.943405867,6.32405901,-5.897909641,57.78066254,-6.240859985,-31.4769001
1785,-0.675507486,5.790671349,-6.892957211,25.71769905,2.953148603,-19.45186806
1786,-0.884786606,6.716564655,-7.996243477,33.86384201,13.21836281,-10.84727478
1787,-0.317750365,7.224671364,-7.200496674,41.52405167,15.85217571,-6.685615063
1788,0.123850517,7.884212971,-7.82238245,27.31730652,9.024409294,-0.700445235
1789,-0.513656318,8.00729847,-8.059045792,21.95725441,7.064783096,4.402646065
1790,-1.028558254,6.2053895,-7.871747494,17.354496,12.71814251,5.384791851
1791,-0.95300442,5.966296196,-8.404414177,20.61879539,26.0898571,-2.274019718
1792,-1.072390199,6.746337414,-7.681004047,37.13777924,39.71455002,-4.85884428
1793,-1.123549104,6.507626534,-6.201856613,45.96112823,34.43174744,-4.692531586
1794,-1.760949254,5.660167694,-7.052081585,66.9450531,9.970180511,-5.875507832
1795,-1.572775483,3.524866104,-6.769832611,74.33966827,0.664311051,-18.11550522
1796,-1.545035839,4.137632847,-7.397895336,82.65786743,1.874048114,-27.93099976
1797,-1.766874194,4.397426128,-8.179968834,118.8390808,6.86068058,-36.9694252
1798,-1.761090159,1.506255627,-6.85763979,124.3197708,19.14953804,-36.14790344
1799,-2.282715321,0.774425983,-7.076032162,129.5808411,23.19986725,-39.77639389
1800,-2.0030303,1.237749815,-7.092308521,144.5309753,27.43201447,-43.66564941
1801,-1.956597924,1.970219731,-6.5998559,145.6700439,21.77314949,-37.39377975
1802,-2.22584939,3.593966007,-7.157089233,138.5481567,11.72825146,-33.12440109
1803,-2.457361698,3.846572876,-7.944643974,129.9412842,7.950562477,-38.10206223
1804,-2.500160217,3.367277384,-9.05228138,123.6917496,0.207148626,-39.61749649
1805,-2.191689968,3.255499363,-9.783007622,136.0638428,-9.46931076,-42.16662979
1806,-2.710243225,2.518741846,-10.30349827,150.7054443,-7.689781189,-43.9291954
1807,-3.151571989,1.965200424,-10.54914188,161.3372192,0.384388775,-46.51912689
1808,-2.694376469,0.346621066,-9.914019585,168.2256317,13.85658836,-51.55931854
1809,-2.358889818,-1.46972239,-9.053037643,174.7883911,27.61119461,-57.92596054
1810,-2.177736759,-1.022259951,-8.844139099,182.09935,39.24825287,-66.49090576
1811,-1.908979297,-0.327654988,-8.311987877,179.2440033,42.43545151,-70.46712494
1812,-1.702113152,-0.120090351,-8.695418358,184.2375183,39.27035141,-71.14743805
1813,-1.506168008,-1.407026291,-8.738888741,195.1132202,32.31107712,-67.92312622
1814,-1.496367574,-3.804340601,-8.509691238,196.1964111,21.42082787,-64.33973694
1815,-1.769592166,-4.294142723,-8.944883347,197.253891,10.48686886,-62.5735817
1816,-1.304262519,-3.664530039,-8.851017952,193.7248383,7.401007652,-58.59629059
1817,-2.393705606,-3.909846783,-9.253225327,181.7899475,16.5539608,-57.44944763
1818,-3.54019618,-4.315151691,-9.297099113,175.5999908,17.98792458,-58.50785828
1819,-2.355433941,-4.047799587,-8.949437141,180.685257,21.5913868,-61.72110748
1820,-0.941868544,-4.228061199,-8.301907539,159.5875702,27.17877388,-53.6341095
1821,-0.510725737,-4.188702583,-7.886991024,108.7782669,25.46542931,-48.42071152
1822,-1.064022422,-3.644972324,-6.967462063,77.03682709,26.554245,-41.12263107
1823,-1.460856199,-3.320658207,-6.977005482,61.8634491,13.96667862,-36.93421936
1824,-1.31146431,-3.829623699,-7.620495796,44.34455872,-3.05319047,-26.61936378
1825,-1.082113266,-4.872499466,-7.237744331,30.56464958,0.332601488,-15.44583797
1826,-1.09619689,-6.310685158,-6.589133263,-12.55918217,-3.167985439,-1.755738616
1827,-1.698287487,-5.092319012,-8.169285774,-39.81993866,-5.96637249,7.546070099
1828,-2.012812138,-3.796358824,-9.40754509,-38.8094368,-9.194453239,14.05106735
1829,-1.317851543,-3.695422649,-8.978373528,-46.89730453,-8.194016457,22.54226875
1830,-1.047175765,-3.810736179,-7.933455944,-80.27526093,-7.005115509,38.07518005
1831,-1.180852532,-4.016360283,-9.182039261,-139.3840485,-14.00629807,55.61382675
1832,-0.814365149,-4.900064468,-10.64198399,-170.5862885,-16.16638947,71.0652771
1833,-0.887704134,-5.078287125,-10.17060852,-202.3338318,-1.893757701,77.6367569
1834,-1.919770002,-4.153786659,-10.27109146,-203.2645264,9.273253441,77.7554245
1835,-1.969277501,-4.403790474,-9.675427437,-207.1712799,-1.946057558,79.47858429
1836,-1.240245342,-5.278690338,-9.315645218,-215.4057922,-22.5165081,83.35626221
1837,-1.293979049,-4.943986416,-9.386144638,-197.9519348,-24.45831871,78.88038635
1838,-1.476417542,-4.292752266,-9.136124611,-170.3089752,-33.12986374,66.87496948
1839,-0.77487725,-2.653752565,-8.735533714,-131.4465027,-41.38045502,56.16746521
1840,-0.570672929,-2.430325985,-8.708989143,-103.9724655,-55.60959625,42.47261429
1841,-0.591726422,-2.307223797,-9.806944847,-85.70379639,-58.9380455,30.32190895
1842,-0.674254,-2.009078741,-10.90154362,-58.22422028,-54.32740784,15.14017677
1843,-1.178107977,-0.78903681,-10.37330818,-38.22367096,-37.64069366,4.375340462
1844,-1.031203866,-0.203986973,-8.683763504,-35.68464661,-22.3864193,-1.484956741
1845,-0.742352843,-1.347492695,-8.022699356,-39.65657043,-9.7174263,-5.221653461
1846,-0.631359279,-1.424582481,-8.490387917,-14.23733616,-3.543815613,-11.60076141
1847,-0.312364548,0.076919384,-8.99626255,6.135026455,0.290877521,-20.6633606
1848,0.332964599,0.96111387,-9.378328323,8.255135536,5.999562263,-21.11472511
1849,0.242787078,1.08802259,-9.036934853,7.868268013,10.44126034,-18.89332199
1850,-0.185642019,1.38503778,-8.329524994,5.152013779,16.90004921,-20.6074543
1851,-1.12803793,1.775998712,-8.665735245,12.28957844,21.30579758,-22.99966621
1852,-1.959238887,2.056038141,-8.854566574,28.56628799,19.49481583,-21.90556908
1853,-2.200670242,1.661589026,-9.272936821,29.75149918,10.01538849,-18.97846031
1854,-2.276951075,1.366278172,-9.562663078,20.48626709,9.991497993,-17.58174706
1855,-2.223165751,1.121210337,-10.18232059,14.43951321,12.32911396,-14.94306755
1856,-2.31000495,1.114135861,-10.1649971,1.255081058,13.01361179,-7.887910843
1857,-2.27566576,1.017039895,-9.836929321,-6.025531769,10.42317677,5.415763378
1858,-1.470675349,0.338770002,-8.917192459,-30.09510803,1.840183377,11.65877151
1859,-1.132299185,-0.230094641,-7.769710541,-54.12963867,-6.707965374,16.77538872
1860,-1.709654927,0.82777524,-7.828308105,-74.45731354,-11.58735466,25.32776833
1861,-1.923215985,1.73869729,-9.055867195,-86.66673279,-11.46143246,32.25492859
1862,-1.842888117,2.646371365,-9.897919655,-89.70610046,-5.261899471,40.43247986
1863,-1.894194126,1.49902153,-8.873835564,-84.8766861,11.19045734,43.72066498
1864,-2.251546144,0.48372227,-7.327655315,-104.4576645,38.02851486,42.68318176
1865,-2.108224869,2.677094221,-9.117178917,-133.855011,37.09112549,47.4961586
1866,-1.812188268,3.964357853,-9.65953064,-148.0803986,32.22034454,56.65520096
1867,-2.012602329,4.058981895,-10.27873421,-177.3653564,21.70119286,64.38904572
1868,-1.652402639,4.093929291,-10.47604752,-199.2351074,12.91565895,69.71638489
1869,-1.427808642,3.872835636,-10.12533951,-214.3799896,16.45459938,70.22980499
1870,-1.18674159,3.836622715,-9.00597477,-224.90979,18.60207939,66.77159882
1871,-1.498134494,4.281445503,-8.460181236,-218.9700012,16.19436073,59.35487747
1872,-1.761696339,6.070755482,-8.080552101,-218.1706085,11.8177166,54.09879303
1873,-1.130040884,6.752995014,-7.969845295,-215.4863129,7.802661419,49.96939087
1874,-0.931305528,6.288209915,-7.639764786,-216.7975769,3.670046806,47.32671356
1875,-1.312646747,5.858794212,-7.296507359,-209.5731354,3.096026659,38.00222397
1876,-1.218976021,5.424190998,-6.870069027,-188.1825256,-3.661625147,30.87932014
1877,-0.518473506,5.503670216,-5.969698429,-163.7992401,-4.766820431,26.44316864
1878,0.086426787,6.133329391,-4.753278732,-146.4553223,-4.163295746,23.34549904
1879,-0.149304941,6.431035519,-3.481313705,-126.3278732,-8.8763237,17.99397659
1880,-0.444170415,6.372469425,-3.784239054,-84.1608963,-32.3707428,10.40211296
1881,-0.691939294,6.516364098,-4.221265316,-23.96988487,-61.32408142,8.177625656
1882,-1.279700398,7.201006889,-4.446415901,13.78333569,-70.53144836,5.542478561
1883,-1.368728876,6.909296513,-5.693397045,29.60512352,-69.91909027,0.788406849
1884,-1.578932643,6.597439766,-6.630129337,30.29195404,-50.37950134,1.962872148
1885,-0.793912768,4.688588142,-4.365469456,50.25049973,-39.42860794,-2.622624397
1886,0.226649731,2.989536047,-1.8197577,72.26600647,2.381906748,-21.79920006
1887,1.033846498,5.160605431,-4.016935349,103.8952026,1.602021575,-37.5290947
1888,0.118381225,9.518603325,-6.099829674,152.0180969,-15.28090096,-38.59362411
1889,-0.617982924,10.03981209,-5.967704296,157.9459381,-10.3843956,-32.62669754
1890,-0.548799932,8.185444832,-5.040328503,125.1618347,-4.748652935,-28.54129982
1891,-1.016172528,7.915563583,-5.586090088,115.2375565,-11.15257835,-31.38378334
1892,-0.957850099,8.947322845,-7.109087467,134.0325775,-23.47278595,-38.23112106
1893,-0.659994304,7.887708187,-7.415401936,143.9864349,-36.47982407,-39.49014664
1894,-0.99751091,7.622452736,-7.771614552,134.7380371,-48.80938721,-28.61669922
1895,-1.090158343,7.075275898,-7.822814941,122.0835571,-49.64865494,-23.52324295
1896,-0.707679093,5.795190811,-7.40609026,85.72122955,-41.87761688,-19.37016106
1897,-0.035082743,5.64046669,-7.164544582,45.64587402,-29.65976906,-16.1641674
1898,-0.423169404,5.838205814,-7.399036884,16.00337601,-26.16593552,-8.22640419
1899,-1.162394166,6.258379936,-8.423276901,-17.730093,-29.01848984,0.927381992
1900,-0.664320469,6.496974945,-9.153814316,-40.55311203,-19.66508675,5.380594254
1901,-0.612545669,6.337217331,-9.297014236,-50.03820419,-9.701125145,15.9180479
1902,-0.93470037,6.041648388,-8.929496765,-30.36973381,2.567026615,22.93315697
1903,-1.006854653,5.009949684,-7.989862919,-29.4944725,24.26520157,20.37778091
1904,-1.22890079,4.729799747,-7.998922825,-8.177310944,35.99954605,15.82432747
1905,-1.74023819,5.04942131,-7.304467678,12.1156435,30.17071152,10.4671011
1906,-1.602770805,5.235877037,-7.465084076,21.95565414,14.3248806,5.953693867
1907,-1.146655321,4.130783081,-7.80973959,29.3536129,7.864039898,-2.46729207
1908,-0.938265443,2.931502104,-7.592400074,40.79519272,7.965788364,-12.56256294
1909,-1.156423211,3.292093039,-6.972863197,54.71601868,15.13727379,-23.27428627
1910,-1.516114712,4.791752338,-6.867452621,61.41566849,19.73870277,-28.25291061
1911,-2.002156973,4.363662243,-6.924505234,59.08886719,22.4813652,-30.02006912
1912,-2.35068965,2.910245657,-6.91549015,59.34767914,25.8919239,-32.31483459
1913,-2.317086458,2.722100019,-6.870912552,72.37921143,19.03867531,-34.18444824
1914,-1.898224711,2.939376354,-7.11077404,89.26530457,6.837528229,-36.1320343
1915,-1.641890407,4.039762497,-7.084037304,102.4188843,0.451935947,-38.91987228
1916,-1.449150085,4.448822975,-6.409430027,99.60997772,-0.151543915,-45.1678009
1917,-1.410359383,3.117231131,-7.121637344,99.66670227,2.906711102,-46.7405014
1918,-1.562353492,1.481078744,-8.3135252,102.0029526,5.524952888,-48.4691925
1919,-1.616855383,0.915826559,-10.48159885,128.1239624,8.058516502,-49.49954224
1920,-2.495215416,1.152868748,-11.42496204,151.5450134,13.3711853,-49.68467712
1921,-3.459417343,1.153259039,-11.51710415,158.000412,17.21294022,-46.13122177
1922,-3.001000166,-0.123392738,-9.967967987,163.7367096,17.73830605,-49.60438156
1923,-2.350429535,-0.352306217,-8.813562393,167.26474,30.33559608,-54.34698105
1924,-1.95415175,1.430602908,-9.611581802,182.9186249,33.48644257,-57.53215408
1925,-1.679188609,1.596064091,-9.007685661,194.6167755,34.0695343,-56.79619598
1926,-1.560340524,-0.223891675,-8.551460266,189.0354309,33.79983521,-55.04787827
1927,-1.483514667,-2.331444979,-8.628310204,194.2756195,27.5707798,-55.20185852
1928,-1.724755287,-3.795495987,-9.25810051,193.5996094,24.58943176,-57.88428116
1929,-1.989783645,-4.03779459,-9.959903717,192.7089233,29.1559124,-55.97345352
1930,-2.596123457,-3.487830162,-10.11655617,200.5451202,29.11989021,-50.91667557
1931,-2.633625031,-3.647366762,-9.665027618,201.3000946,22.8286705,-52.13920975
1932,-2.226943731,-4.049286366,-9.356287956,197.9907532,20.11306572,-55.86358261
1933,-1.479156852,-4.812369823,-9.477795601,187.1743164,14.41283798,-52.57381058
1934,-0.923012078,-4.202345371,-9.991285324,151.8752136,5.297798157,-46.14832687
1935,-0.775186419,-2.09397769,-9.211234093,109.0143433,15.65935612,-36.45514679
1936,-1.113533497,-2.241024494,-8.786680222,74.26740265,7.603647709,-25.22145081
1937,-1.293441653,-3.286487103,-8.900227547,54.4612999,-5.563628674,-16.6429882
1938,-0.809971452,-3.862563372,-8.344628334,31.15632057,-2.184617758,-7.957997799
1939,-1.225935698,-4.300460339,-7.710159302,1.132510424,5.149222851,-1.120273948
1940,-1.243271112,-4.170886517,-6.191801548,-29.93128967,16.12996483,3.19854641
1941,-1.461714387,-3.420334578,-6.20727396,-64.83562469,9.756930351,9.421039581
1942,-1.996731639,-2.966615915,-8.763396263,-64.6971817,-8.343729019,13.05959415
1943,-1.575087547,-5.039253235,-8.877296448,-75.69747925,-23.70282173,19.99674797
1944,-1.01969707,-4.700870037,-9.697898865,-108.1257629,-24.5294342,29.65942764
1945,-0.122052088,-4.201458931,-8.723525047,-132.7748871,-5.077289581,37.46170807
1946,0.165386513,-5.375712395,-7.277011395,-145.0798187,0.624583185,37.92993927
1947,0.59287715,-5.427359104,-7.643244743,-143.1587067,0.191092074,40.9932251
1948,0.612012386,-4.750237942,-8.375243187,-140.5527344,-2.909765244,48.54174423
1949,-0.035455462,-3.465091705,-8.672688484,-130.7948914,3.915654898,52.32216263
1950,-1.279822707,-3.30739212,-8.473210335,-124.1717987,2.928385973,46.83784103
1951,-1.438091636,-2.708428144,-8.81781292,-114.6243286,-6.036549091,40.30670547
1952,-0.577340007,-3.235332727,-9.250231743,-104.8136063,-18.131073,35.59563065
1953,-0.009876043,-3.118891001,-9.437072754,-87.79816437,-25.98958588,28.82468987
1954,0.224673077,-2.574147701,-9.364292145,-72.90177917,-28.26686859,21.69327545
1955,-0.312015295,-1.722560644,-10.63029194,-66.00302887,-25.07670975,17.94508553
1956,-0.645529449,-1.386714935,-11.77095509,-52.88301468,-13.42074203,13.8241787
1957,-0.823933542,-1.312919974,-10.78431988,-47.00797653,-1.79628408,6.14313221
1958,-0.489396423,-1.758979321,-8.766734123,-42.79747009,6.062072277,-0.329778463
1959,-0.766488969,-2.161722422,-8.250264168,-38.24513245,4.885732651,-7.930375576
1960,-0.276506931,-2.143266201,-8.709205627,-13.51200676,-0.529620469,-20.16056442
1961,0.503130972,-0.750370324,-9.388360977,6.631055832,-8.040096283,-19.55490685
1962,0.418398798,0.43590486,-9.032147408,-0.511524498,-11.8114872,-11.03350067
1963,-0.520297647,0.647933125,-9.692391396,-16.17376137,-8.09038353,-2.799432993
1964,-0.881715119,0.439207345,-9.749903679,-26.67280006,-0.811053813,-1.399532676
1965,-1.501269937,0.570804954,-9.797679901,-42.04746628,9.402848244,-0.970535517
1966,-1.833842039,1.425437093,-8.712140083,-46.39130402,8.456234932,-3.95971632
1967,-1.473797679,2.681884527,-8.078028679,-54.7804184,-5.773228168,1.472624302
1968,-1.809054494,2.075283289,-8.627165794,-85.73660278,-13.86539555,17.3712616
1969,-1.356006026,1.57862711,-9.457774162,-108.7791061,-19.250103,24.47525978
1970,-0.834693134,2.747028351,-9.332809448,-130.5239563,-19.68320274,29.01036835
1971,-0.777991712,2.240217447,-8.620556831,-144.6748505,-13.77250195,37.17549896
1972,-1.303233981,1.691417098,-8.300849915,-153.8057404,-16.53568649,42.16874313
1973,-1.297133088,2.388424158,-8.249547005,-153.6427917,-10.38112736,44.00652313
1974,-1.16378653,3.674770832,-8.616963387,-157.1220093,-6.484972,47.85149765
1975,-1.336121798,3.812589169,-9.417931557,-165.1755981,4.285452366,53.06350327
1976,-2.106517315,2.937744856,-9.39911747,-171.2265625,24.13219643,50.44122314
1977,-2.798354626,2.919735193,-10.25832462,-164.8382263,26.82404137,43.09938049
1978,-2.197451591,4.438576221,-10.01885796,-149.8774414,12.46611691,43.39372635
1979,-0.87144506,5.582953453,-8.818195343,-160.3580627,8.440115929,44.89789963
1980,-0.843034625,6.273564816,-8.689767838,-177.790329,14.58599377,45.91034317
1981,-0.990066111,5.052160263,-8.623389244,-196.1215668,13.60134506,46.25032806
1982,-1.098622203,3.30718112,-7.464585304,-187.0922852,19.96229744,40.89847946
1983,-0.794718087,3.93434906,-6.342853546,-169.455307,18.05103493,37.86394501
1984,-0.884588718,6.347211838,-6.057202816,-155.7269745,7.985099316,34.54615402
1985,-0.699775696,7.849898338,-5.758853912,-153.5212402,-0.618202806,28.2900219
1986,-0.95015049,7.92294836,-5.942028999,-151.8519287,-12.20177555,29.97722244
1987,-1.359430194,6.614756107,-5.724898815,-132.4877319,-24.36123276,32.51705933
1988,-1.07320714,5.181527615,-5.107265472,-105.698082,-31.73814011,31.17320824
1989,-0.620407045,4.716785908,-3.682150602,-81.81848907,-33.12131882,25.55492973
1990,-0.311249971,4.968768597,-3.11861515,-56.99997711,-33.04595566,17.05931664
1991,-0.228751034,6.387318134,-4.014883995,-16.36084366,-53.06552124,7.97500515
1992,-1.57310462,8.112688065,-5.564677238,22.760746,-82.70735168,3.209271431
1993,-2.544283867,8.065140724,-7.115283012,51.63608932,-90.44599152,2.858992815
1994,-1.363622785,6.634963512,-6.566987038,70.64280701,-72.27143097,0.023084275
1995,0.477208257,4.954422474,-4.126866341,55.40271759,-24.8552227,-21.65544319
1996,0.814473689,5.979100227,-4.544223785,63.79013443,-0.26580146,-44.44242096
1997,-1.440298319,9.053602219,-4.72567749,107.9699478,-33.09050751,-43.2551651
1998,-1.660933971,11.03860855,-5.041344643,131.8903656,-54.25673676,-29.02544975
1999,-0.290325761,9.19781971,-4.970514297,130.5919952,-49.33140564,-15.36074734
2000,0.281781316,7.121999741,-3.737882137,85.42136383,-41.94290161,-14.41887093
2001,-0.164029464,9.015510559,-4.819702148,79.75252533,-53.52355194,-24.14343834
2002,-0.698106766,9.730271339,-6.673552513,101.2810822,-53.94764709,-36.32082748
2003,-1.029417753,7.720365047,-7.836700439,117.5562744,-46.08993912,-37.87037277
2004,-1.798117161,6.088121891,-7.372954369,110.8102646,-42.19264221,-30.46107674
2005,-1.28865397,6.395589352,-7.313099861,78.63186646,-44.17346954,-20.3586998
2006,-0.165980414,6.579344749,-7.429566383,31.61364746,-35.78151703,-9.990958214
2007,-0.575625479,6.321743965,-8.309062004,6.891243935,-22.20471382,2.206019163
2008,-1.471902013,5.69065094,-9.880428314,9.350495338,-12.27132607,10.21541214
2009,-1.916564584,5.246524811,-8.802599907,3.533705235,-7.057255268,17.38336754
2010,-0.362208575,6.290863991,-8.026122093,-20.63800621,5.884073257,6.969182968
2011,0.29472661,7.601551056,-7.2067523,-39.08291626,39.54248428,-2.058489323
2012,-1.203758478,6.862685204,-7.088696957,-40.39984894,51.69867325,-1.440672159
2013,-2.96968317,5.862805843,-9.331184387,-13.04921818,33.265728,5.113336563
2014,-2.866885662,4.798839569,-9.472841263,5.235233307,11.87109089,6.743578434
2015,-2.17407155,4.234582424,-9.18798542,4.511491299,0.479757875,-3.557296753
2016,-2.809139729,3.661468744,-7.70589304,24.59298515,-7.146704197,-8.932143211
2017,-2.687114239,3.424184561,-5.869233131,54.44517517,-20.14611816,-15.86268616
2018,-1.550960779,3.518808365,-5.556118488,59.3351326,-25.21975708,-23.19543457
2019,-1.105736852,3.553412914,-5.632650852,44.96268082,-17.65817451,-36.66166306
2020,-2.689270496,3.866873741,-6.269938469,30.84105301,-4.090975761,-41.17288208
2021,-2.102121115,3.896362782,-6.467898369,29.23342514,-4.998472214,-45.18471527
2022,-2.813467979,3.31852746,-6.885410786,50.52536774,-10.19375515,-45.58485794
2023,-3.170899153,3.107791185,-6.78464365,72.22101593,-9.745375633,-50.01066589
2024,-1.939493179,2.944632292,-7.044843674,83.29844666,1.332375765,-57.01503372
2025,-1.387370825,2.372171879,-7.676419258,91.67295837,12.4362793,-50.91040039
2026,-2.119551659,0.741609216,-7.771062851,94.59253693,7.47699213,-46.21868896
2027,-3.799210072,-0.532834113,-9.271634102,120.8776855,-2.179106474,-50.25463867
2028,-4.164898396,1.404045105,-10.25564384,161.8824158,-2.797680855,-54.11603928
2029,-4.394856453,3.432104111,-9.919000626,168.9822998,12.91436481,-60.00468826
2030,-4.763542175,3.112923622,-8.515979767,157.3431702,26.66207123,-64.05358124
2031,-3.016030788,1.013755083,-7.600770473,144.8082275,38.5970726,-68.11047363
2032,-1.901529908,0.125403121,-9.111439705,164.47789,37.92074203,-74.17106628
2033,-1.690073609,0.623902559,-9.289626122,207.1135406,37.47307968,-78.52965546
2034,-2.343151569,-0.012973696,-8.414402962,214.1123047,39.57387543,-78.30768585
2035,-3.1591506,-0.361121237,-9.446374893,215.4955292,34.09673309,-79.2063446
2036,-3.188569307,-1.339008808,-9.983968735,229.6682281,26.92474365,-79.69465637
2037,-2.945016861,-3.259707212,-9.695802689,221.6833344,24.27636337,-78.34949493
2038,-2.898803949,-3.587983131,-9.880251884,213.1118469,28.85131645,-73.2365799
2039,-2.99285984,-2.708323002,-9.773139954,215.3574677,28.14822388,-67.87645721
2040,-3.064952135,-2.372596025,-9.561275482,198.4751282,24.0725193,-63.56775284
2041,-2.941102028,-3.04245615,-9.353524208,178.5269928,32.97926331,-66.2161026
2042,-1.765219927,-3.558260918,-9.150491714,155.2585144,34.03562164,-62.5951004
2043,-1.627661109,-3.263434172,-8.887946129,125.239769,31.08370972,-52.70126724
2044,-2.379256487,-2.682604074,-9.454051971,110.4757385,21.04244041,-46.32808304
2045,-2.716226816,-3.455989838,-9.549718857,102.0964432,17.01353264,-39.00432968
2046,-1.899973273,-4.580748081,-8.284095764,65.26299286,20.4156723,-31.23674774
2047,-1.334484577,-4.367139339,-7.501628399,23.79634857,22.32750702,-20.41254234
2048,-1.816882491,-4.034645557,-6.856018066,13.08956623,21.12483025,-10.76197338
2049,-1.925260901,-3.60586071,-5.408927917,-5.790309429,19.38667297,-1.856654406
2050,-1.96687448,-3.816560268,-6.479930401,-32.41544342,-0.026944665,9.264884949
2051,-2.087946177,-4.110795975,-7.386068344,-42.61779785,-3.452411175,13.52753925
2052,-1.672968268,-4.30402565,-6.85895586,-63.56029129,-11.50892353,19.71374321
2053,-1.470901728,-3.017147541,-8.09566021,-97.19408417,-23.08127785,30.36188126
2054,-1.230636716,-3.438086033,-7.745514393,-127.2121353,-22.82450676,42.52563477
2055,-1.396942854,-3.564014673,-7.386281967,-154.8946381,-26.68910789,51.03645325
2056,-1.869517207,-3.02967906,-7.729278088,-180.5403137,-27.80880547,58.38947296
2057,-2.708561897,-4.036427021,-9.339342117,-223.3357849,-32.7333107,64.28607178
2058,-2.919763327,-4.391017437,-11.68845463,-236.6964722,-27.04861641,68.96102142
2059,-2.671225786,-4.675061703,-10.96078491,-212.6159058,-17.97618675,66.79399872
2060,-2.132541418,-3.789342403,-10.12913609,-176.3608704,-20.67710114,61.31462097
2061,-1.326264262,-3.198707581,-9.995209694,-141.4412384,-31.79921341,53.05255127
2062,-1.425666571,-3.505963802,-10.31040573,-105.9308472,-40.93401718,44.25282288
2063,-1.206878662,-4.912717819,-9.933401108,-65.39125824,-49.86070633,30.34197807
2064,-0.438118935,-4.144743919,-10.12092304,-33.93619919,-50.28617096,13.58345127
2065,-0.32462877,-2.058614254,-10.44372845,-13.26725197,-42.06583023,3.772322178
2066,-0.732191861,-0.645959258,-9.890515327,-1.197422862,-29.42495346,0.105799966
2067,-0.870365977,0.054744434,-8.73799324,-5.743740559,-10.69385815,-2.441980124
2068,-1.674580455,-0.454496324,-8.241158485,-12.01898289,1.942589879,-4.187793732
2069,-0.936521411,-1.554674149,-8.399688721,-5.712684155,4.428866863,-4.803791523
2070,-0.584538102,-1.496277213,-9.127700806,-1.348869562,19.3368206,-11.0520134
2071,-0.120108426,-2.159383059,-9.176343918,5.122936249,26.36518669,-17.56245804
2072,0.727498889,-1.156734347,-8.110661507,17.30420494,24.21338463,-14.78254128
2073,-0.404281795,0.938650787,-7.821064472,11.22495937,20.4952507,-7.019775867
2074,-1.07591784,0.407231987,-8.742837906,0.897964358,27.1462841,-2.733368635
2075,-1.879761338,-0.939761937,-9.123506546,9.361317635,36.24965668,-9.272357941
2076,-2.330865622,0.950134158,-8.990885735,23.08128166,26.20256233,-12.13750553
2077,-2.997839689,2.347429514,-9.049606323,3.438006401,24.49411392,-5.04436779
2078,-3.224831104,3.115956783,-9.173134804,-23.60156822,11.07460499,4.614247322
2079,-3.299592495,2.058001995,-9.54131031,-45.97481918,-2.606921196,17.30192947
2080,-2.747426271,1.592925549,-10.13430977,-65.23363495,-9.054755211,29.93299103
2081,-2.535046816,0.932721496,-10.04474926,-78.94329834,-1.323340893,36.21714783
2082,-2.357402563,0.874272108,-9.995858192,-83.19768524,1.947551608,39.00534821
2083,-2.51590848,0.390833199,-9.080441475,-86.34370422,10.23499012,39.33567429
2084,-2.011167288,0.855264902,-8.151070595,-100.974762,25.51812363,34.84925079
2085,-1.310345173,1.980670452,-7.885236263,-116.7196121,30.26924133,39.66916656
2086,-1.50848186,2.513265848,-8.593798637,-113.7866058,17.47552109,50.04951859
2087,-2.334746838,1.992572546,-8.888823509,-118.6565857,28.32965851,53.68815231
2088,-2.63899827,2.295471191,-9.856461525,-129.3699036,35.28783417,52.84120941
2089,-2.395157337,3.526464462,-9.58471489,-127.9263153,38.6686554,46.56707764
2090,-2.007703304,4.908159256,-9.134931564,-139.8160095,31.89120293,44.30156708
2091,-1.144092917,5.191204071,-9.615989685,-151.9749451,19.16580772,47.94890594
2092,-1.332995057,4.596776485,-9.416944504,-160.2386169,13.58580303,50.13476944
2093,-1.267336607,4.643081188,-8.955007553,-167.4211731,9.180600166,56.79248428
2094,-1.245650768,4.815210819,-8.14964962,-184.3447723,14.10551167,56.74238968
2095,-1.28965807,4.671507835,-7.80435133,-198.8717499,21.26701736,49.4737587
2096,-1.505954742,5.840316772,-7.351883888,-201.93927,22.59887505,44.5884819
2097,-1.413771391,6.679461479,-7.042360783,-198.8914948,12.60710239,48.64122391
2098,-1.766037226,6.124434948,-7.146590233,-183.2207336,-3.583046436,51.42687225
2099,-1.222547174,6.079512119,-6.590922356,-180.8532715,-8.589085579,46.60332108
2100,-0.512310207,5.767283916,-6.7261343,-169.4806671,-7.610287189,41.83288574
2101,-0.063126765,5.999071121,-6.417791367,-142.9360962,-9.399485588,37.10434341
2102,-0.41133827,6.104458809,-5.093240261,-112.1396179,-12.32975483,32.00238419
2103,0.051944174,6.348133564,-3.743672848,-93.57628632,-16.30711937,23.86803246
2104,0.323488116,7.190897942,-2.927825928,-81.46792603,-27.85716438,17.18600464
2105,-0.272347569,7.98175478,-4.121672153,-45.87514877,-52.55123901,17.30656624
2106,-0.493612796,7.421304226,-5.033105373,9.894805908,-79.07115173,14.59537029
2107,-0.787757933,5.951452255,-4.389890671,33.59669113,-75.78385162,3.778713942
2108,-0.98178494,5.227061272,-5.382577896,31.88639641,-54.30606079,-5.913146496
2109,-1.48662436,6.469726563,-7.024095058,60.435009,-40.37162781,-6.002025604
2110,-1.333417296,7.813706875,-5.493975639,93.70921326,-23.02339745,-12.21013546
2111,0.167459592,8.258015633,-3.185849428,59.39650726,5.66626215,-27.58053398
2112,1.419969916,9.372020721,-2.554029703,40.32161713,-0.917788327,-31.42689323
2113,1.423375487,10.40980816,-2.261519432,51.07185364,-36.61664581,-20.67200661
2114,0.372442365,10.70758438,-3.269358158,66.70450592,-57.39801407,-14.00956726
2115,-0.617956579,8.389918327,-5.011721134,93.26278687,-73.40579224,-13.33785629
2116,-0.391736776,5.947478294,-6.317211628,114.7540359,-75.4405899,-19.58135223
2117,-0.174525872,6.757925987,-7.44013834,121.3300781,-72.3167038,-22.8269558
2118,-0.73890245,8.543962479,-7.024200916,112.8656464,-66.27110291,-25.49549103
2119,-0.481271654,7.95353508,-6.807003021,93.00849152,-51.89008331,-29.3669014
2120,-0.109324515,6.806208134,-7.338178635,60.69879913,-16.39802742,-28.8350811
2121,0.4438245,5.553684235,-7.518636227,27.72509193,3.2604177,-26.36307144
2122,-0.308979541,5.768920422,-7.53574419,-2.76695776,7.330771446,-20.29147911
2123,-0.765752375,6.772954464,-7.863820553,-21.67448235,1.355459452,-15.30048752
2124,-1.182145596,7.060899258,-8.78534317,-19.92538452,-1.549647808,-9.691158295
2125,-1.455008268,5.702082634,-8.6494627,-4.798529625,1.834734797,-10.76421642
2126,-2.151021242,5.341944695,-9.341173172,21.33488083,14.30651855,-11.46066475
2127,-2.041396618,5.180376053,-7.892355919,45.21607971,46.84487915,-19.22921181
2128,-1.785137177,5.570652485,-6.651625156,40.79863358,59.99595261,-21.3377552
2129,-2.316001177,5.837744713,-7.283925056,41.37306595,42.31336212,-17.89889717
2130,-2.688480139,6.012126923,-7.486034393,38.62436676,22.00428581,-13.72904873
2131,-2.450706244,5.747770309,-8.46225071,39.14112854,1.732894778,-9.682117462
2132,-2.484494686,4.7160182,-7.970719337,39.12186813,-9.081613541,-9.521835327
2133,-2.102073431,3.742195129,-7.081413269,34.427948,-5.800562382,-13.62255383
2134,-1.46876514,3.941617489,-6.631718159,39.7235527,-1.493410826,-23.69613838
2135,-2.460888386,4.170735359,-6.392477989,51.14881516,0.677598774,-29.99778748
2136,-2.831343174,4.414485455,-6.304325104,55.96361542,-4.671939373,-31.05544281
2137,-2.634644985,3.687665701,-6.433265209,56.12244415,-13.38186359,-35.51302719
2138,-2.405708551,2.856477737,-7.213867188,55.31487656,-18.56184006,-35.26263046
2139,-2.186125994,2.855231524,-7.530434132,58.44277954,-14.20599747,-36.14663696
2140,-1.648854852,3.823168516,-6.499717236,55.31543732,-1.413983464,-35.87935638
2141,-1.275141358,4.264102936,-5.789365768,60.8598671,1.463337541,-37.40932846
2142,-1.105388045,3.010663986,-6.088689804,73.14689636,-4.3037467,-42.18733597
2143,-2.114523172,2.209985971,-7.776673794,98.48679352,-5.904687405,-44.86953354
2144,-2.281364918,2.155945539,-9.621995926,125.4490509,-16.2400074,-44.91764832
2145,-2.791498423,1.779788017,-9.729863167,121.9480972,-8.117863655,-38.42329407
2146,-3.093564987,0.461015582,-8.534249306,102.3821487,18.44481659,-35.53225708
2147,-3.124616146,0.230123594,-8.358537674,109.2650146,37.90990829,-41.33126068
2148,-2.615530252,1.081983805,-8.679153442,144.0494995,38.4074707,-51.26377487
2149,-2.468886614,1.960860491,-8.63944912,172.5624542,35.56231308,-58.80995941
2150,-2.108747482,1.645496845,-8.449079514,184.4033051,42.5487442,-61.29191971
2151,-1.937580705,-0.210012645,-8.729326248,206.8751831,44.37789536,-62.97623825
2152,-2.0739398,-1.270301342,-9.906041145,232.4242706,32.21112442,-60.22095871
2153,-2.494340181,-2.014026642,-10.11040211,234.4740601,17.7755909,-59.6142807
2154,-2.462543488,-2.330363035,-10.71656895,214.4399414,15.63273239,-53.45740509
2155,-3.210996628,-1.812068939,-10.71016979,201.6331635,17.51620865,-47.99547577
2156,-3.715877056,-1.213356137,-10.46731663,199.1043701,14.55318356,-51.52236176
2157,-3.01951623,-2.048485041,-9.677244186,185.1076355,23.5438118,-51.45518112
2158,-2.1337502,-2.876440048,-9.476665497,156.7113495,36.375103,-47.16300583
2159,-1.103952527,-2.996158361,-9.656059265,124.3659973,32.37195587,-43.05549622
2160,-1.283525705,-2.596257448,-9.543540955,103.4624023,29.87265205,-42.76898193
2161,-1.749960899,-2.313225031,-9.715738297,85.93899536,22.39435577,-37.24233627
2162,-1.774045825,-2.597228527,-9.348426819,63.80932236,21.73865509,-28.52113152
2163,-1.981029749,-3.525177479,-8.680903435,34.51002502,17.7009697,-18.91555023
2164,-2.050818443,-3.362975836,-8.095519066,8.22509861,14.80631542,-9.275137901
2165,-2.140492439,-3.017985344,-7.877236366,-9.957607269,3.432532072,1.167113662
2166,-2.51913619,-3.203320026,-8.176968575,-8.892926216,-0.422353595,7.919981956
2167,-2.291131258,-4.238294601,-6.730126381,-22.58541107,-12.59113979,13.89201832
2168,-1.924262285,-3.837295055,-8.515962601,-57.6473999,-40.69813538,22.1727066
2169,-1.303850889,-3.920926571,-9.782783508,-73.95829773,-39.65776062,27.16118813
2170,-0.937812507,-4.011829853,-8.659444809,-96.7773819,-29.21174622,31.55667686
2171,-0.837589204,-3.626410246,-8.462300301,-113.3478699,-19.58796692,35.83855057
2172,-1.100599289,-3.796043873,-8.885240555,-125.146553,-14.0821867,38.61960602
2173,-1.64044404,-3.739495516,-9.475542068,-128.050705,-15.47314453,41.37264252
2174,-1.243789315,-3.429618597,-10.11223125,-130.4189148,-12.77974892,46.0981369
2175,-1.459318161,-3.607030392,-9.543532372,-120.055809,-4.667997837,43.31604385
2176,-1.146667123,-4.413023949,-9.370883942,-106.1634445,-8.396256447,41.96499252
2177,-0.522365689,-4.675902843,-9.502887726,-87.52561188,-16.98865318,38.96300125
2178,-1.218558192,-3.171651125,-9.133854866,-68.08093262,-19.38284492,31.24185944
2179,-1.25590241,-1.817984939,-8.632695198,-59.52387619,-30.05563927,24.64917374
2180,-1.313332915,-0.882643282,-8.467047691,-60.70950699,-46.17646408,23.44513893
2181,-2.381427288,-1.12990725,-9.092525482,-65.01213074,-53.43351746,22.9701786
2182,-2.767625332,-2.510724306,-11.21048927,-63.92919159,-53.28474045,13.91354465
2183,-1.012590051,-3.724317551,-11.67071819,-51.28377151,-37.02988052,2.272787809
2184,-0.628874898,-2.680033207,-11.09384823,-26.25531197,-17.77329063,-4.159440041
2185,-0.749838412,-1.178211331,-9.867095947,-7.825616837,-6.341641903,-3.465668201
2186,-0.409828067,-0.438895226,-8.629387856,-12.48942661,6.163962841,-4.899649143
2187,-0.60087055,-0.608565092,-7.786450386,-19.65810394,5.251426697,-12.26325607
2188,-0.720085919,0.021191835,-8.319128036,-14.68082428,0.967450738,-14.64073944
2189,-0.923302054,0.616390049,-8.091526985,-13.61363888,1.126006007,-11.73658371
2190,-1.169955373,0.920337021,-8.34719944,-21.75274086,6.514852047,-6.690588474
2191,-1.333468676,0.171844333,-8.809682846,-27.03653717,14.15474606,-4.58736515
2192,-1.558234572,0.14352566,-8.733930588,-19.55026817,19.94362068,-3.656901598
2193,-2.538425446,0.52770704,-8.787813187,-17.36019897,22.3717804,-4.823487282
2194,-2.63389349,0.646844089,-8.579182625,-13.68310833,15.78744411,-4.734732628
2195,-2.459951162,2.146740198,-8.884174347,-20.87549019,9.819497108,4.310183525
2196,-2.849060535,1.637948513,-8.636162758,-40.16099167,1.535535812,12.90230465
2197,-3.059348345,1.183780313,-8.910301208,-55.20581436,-2.119078636,16.25100708
2198,-2.72382164,1.040706038,-8.674842834,-56.57266617,-4.211299896,19.93819046
2199,-1.983547449,0.990035176,-7.7982831,-58.54209137,-2.999339581,22.53785133
2200,-1.46848619,1.124033093,-7.699099541,-72.04984283,-9.931194305,29.14905548
2201,-2.552784443,0.585988224,-8.569561958,-86.93281555,-21.97981453,40.52708054
2202,-2.985955715,0.65585947,-9.535432816,-93.44174194,-9.896363258,46.71140289
2203,-2.456980228,1.351525426,-9.599603653,-101.16716,12.47925472,48.55044556
2204,-1.695881844,2.394411087,-8.48678875,-109.1789398,33.75634384,45.16772842
2205,-1.657944798,3.415480137,-7.974825859,-120.3867035,47.70158768,42.87739944
2206,-2.057145357,4.243724346,-8.040288925,-138.5694122,49.85719299,40.53590393
2207,-2.747316837,5.001275063,-9.298790932,-155.427124,39.86886215,46.26016617
2208,-2.923232079,5.038947105,-9.843523979,-167.9288177,26.07409286,52.67209244
2209,-2.565446615,4.885109901,-10.31367302,-170.4853363,8.723475456,58.72426605
2210,-1.773664713,5.206364155,-9.636336327,-182.013855,6.326454163,58.11219406
2211,-1.568920493,5.480424881,-8.726368904,-202.4560089,18.70820045,53.82265854
2212,-1.761656761,5.360665321,-7.942197323,-210.9954681,21.80535316,53.32529449
2213,-1.888659358,4.586308956,-7.528079987,-203.6000671,14.53541088,54.21770477
2214,-2.223040581,4.248888969,-7.500792027,-178.414978,4.973309994,54.70488739
2215,-2.164381504,5.15142107,-6.897699833,-157.8197021,0.461194694,49.35272217
2216,-1.058527589,6.394126892,-6.680846214,-156.1849365,0.274869025,44.07193756
2217,-0.126319394,6.349594116,-6.314823151,-145.2476959,-2.256812096,38.74249649
2218,-0.483895332,5.919328213,-5.296855927,-115.7976761,-8.69790554,33.25967789
2219,-0.420177519,5.971402168,-4.149917603,-91.72462463,-7.806324959,26.84890175
2220,-0.079326361,5.802942276,-3.169263124,-71.32040405,-12.56080341,17.42583084
2221,-0.055342402,6.253810883,-4.116722107,-37.62445831,-31.30812836,12.13044262
2222,-0.458777696,6.910670757,-5.11991787,13.57065582,-55.30223846,6.135215282
2223,-1.211069942,7.222846031,-4.919658661,44.35251999,-61.46283722,2.990720987
2224,-1.822098017,7.008738995,-5.685236931,43.96079636,-51.45627594,0.76494199
2225,-1.978817821,6.990592957,-6.546979904,43.3647728,-37.61641693,1.832436919
2226,-1.548699737,7.177138805,-6.106795311,58.39237976,-33.18713379,-4.428877831
2227,-0.503270209,5.26096487,-3.659541368,65.38853455,-5.331538677,-20.40228844
2228,0.682324469,6.604365826,-3.457437992,55.29215622,9.843628883,-33.82398987
2229,0.548183322,9.252887726,-5.066074371,65.49820709,-12.71588326,-30.86888313
2230,-0.253231108,8.953770638,-5.246834278,79.84054565,-24.21587753,-24.48334694
2231,-0.669415891,7.943101883,-4.566337585,66.5798645,-28.62595749,-22.1999073
2232,-0.210894361,7.961078644,-5.320097923,58.25313187,-31.84536171,-23.56785774
2233,-0.038473621,7.996460438,-6.296630859,55.11508179,-28.17562294,-26.80675697
2234,-0.517130613,6.751429081,-6.762087822,59.22775269,-23.94125366,-31.04645729
2235,-1.191930771,6.415906429,-6.992081642,76.34850311,-26.01885605,-30.65908051
2236,-1.487522483,6.426126003,-7.190811634,82.54931641,-21.65414619,-26.03678131
2237,-0.63523984,6.790959835,-7.733695984,53.01997757,-7.542733192,-20.33223534
2238,0.193280607,6.705337524,-8.431566238,25.74103928,1.529857516,-14.11092472
2239,-0.20071575,6.715435982,-8.449752808,14.39045048,7.321288586,-6.596019268
2240,-0.650268018,7.248290539,-7.875064373,0.062322102,8.474455833,-3.374845266
2241,-0.141922146,6.483633995,-7.525878429,-22.64489365,17.34247971,-2.290716887
2242,-0.73741442,5.995110035,-8.007632256,-23.94927216,15.24845409,2.927379608
2243,-1.962599158,6.287191391,-8.937544823,6.251633167,7.501917839,5.172941208
2244,-1.896357894,6.043341637,-9.005754471,23.73685074,11.50286388,4.879673481
2245,-1.200129747,5.018837929,-8.048057556,26.24054909,23.8770504,0.619657159
2246,-1.646300316,5.218882084,-6.683525085,24.50149727,26.78850365,0.177387968
2247,-1.779344797,5.907516003,-6.416924477,17.29835129,18.57702637,-1.725416303
2248,-0.968637228,5.905385017,-7.670017719,19.43895912,-4.109947681,-2.042871714
2249,-1.192597389,4.696451187,-7.277638435,29.24360275,-3.609749556,-4.512011528
2250,-1.223853827,3.589012861,-6.660753727,39.58540726,0.031612672,-13.83696079
2251,-1.487022638,4.067129612,-7.050567627,53.4196701,-1.917748094,-22.83687401
2252,-2.395530701,4.689745426,-6.791584969,56.71171951,-4.077843666,-29.50164986
2253,-2.46277976,4.556120396,-6.914363861,52.83333206,-11.56452656,-32.65818405
2254,-2.123360157,3.821819305,-7.231199741,46.73433685,-15.89605999,-31.76126099
2255,-2.214723587,2.56496644,-7.449602604,45.45721817,-14.86098385,-32.55941772
2256,-1.967310905,2.673075914,-7.631433964,55.31619263,-11.72953796,-32.85997391
2257,-1.792322993,4.150959015,-7.126512527,65.46993256,-2.183781385,-35.98373795
2258,-1.780556202,5.351612091,-6.409796715,58.49025726,7.247555733,-39.06846237
2259,-1.747662306,4.489763737,-6.274830341,59.51333618,5.89737463,-40.28678513
2260,-1.770320773,2.721003771,-7.100615025,83.96909332,-0.033515301,-46.33372116
2261,-2.065493822,1.975706339,-8.809404373,116.7305679,-7.844093323,-50.20643234
2262,-2.318007708,1.894530416,-10.35453701,134.5693817,-5.009990692,-49.7293663
2263,-2.932482481,1.672265053,-10.32606983,131.9501953,5.834181309,-42.4181366
2264,-3.633475065,1.06815207,-9.698579788,122.8566055,24.28070831,-43.2774353
2265,-3.098522902,0.797004521,-8.676740646,129.6066589,44.94249344,-53.19504166
2266,-2.214087248,0.554691255,-8.356406212,150.4607544,50.08843613,-61.08624649
2267,-2.391663551,1.861104131,-9.355205536,187.4095764,45.77842712,-68.0450058
2268,-2.137404442,0.91121757,-8.605465889,223.8207397,44.21683121,-72.06636047
2269,-1.968733191,-1.187429905,-8.691335678,235.1290436,34.88818741,-72.12741089
2270,-1.821683645,-1.273064733,-9.966449738,232.0289917,20.34398079,-67.26935577
2271,-2.166187286,-1.524289727,-10.6660099,210.4353638,21.86038589,-61.33194351
2272,-2.626211882,-2.23605895,-10.3821907,195.1550903,20.48163986,-57.93266296
2273,-2.709273815,-2.803676367,-10.19006157,207.309494,20.98973846,-60.66628647
2274,-2.532378674,-3.323210716,-10.4986372,206.3099823,22.4309082,-57.30335999
2275,-2.183947802,-3.781466722,-10.06865978,179.026947,22.31886292,-52.60258865
2276,-2.071024179,-3.464295149,-9.897322655,159.3923492,17.83637238,-47.18292618
2277,-1.53330338,-2.969909191,-9.319201469,151.997345,16.59197235,-44.22742844
2278,-1.532722712,-2.514541626,-8.780311584,123.5063477,9.693862915,-40.96585464
2279,-1.52444315,-2.117650986,-9.229834557,86.43365479,8.597676277,-29.61572838
2280,-1.613202453,-2.93868041,-8.778802872,59.01374435,10.56560898,-17.64411354
2281,-1.850701451,-4.480136395,-7.192075253,21.56311226,19.14632797,-14.22231388
2282,-1.448764205,-4.477391243,-7.325134754,-16.79772949,12.81451797,-8.70157814
2283,-1.203317761,-3.578721046,-7.562682629,-25.80626488,10.47832298,-2.561539173
2284,-1.811438441,-2.863774061,-6.097659111,-31.61881828,19.15220451,6.324018478
2285,-3.069367886,-3.472029686,-8.372006416,-71.15840912,-17.75083923,17.50768661
2286,-1.916044593,-4.101207733,-7.82584095,-83.42061615,-15.14354706,22.42569733
2287,-0.390539616,-4.313276291,-8.879006386,-109.7804413,-22.21568489,26.56759453
2288,0.225125954,-4.464746952,-7.527097225,-111.7975235,-5.538764954,30.01618958
2289,-0.403357685,-4.767655849,-7.819491863,-111.9090958,1.737295866,31.51720047
2290,-0.875025153,-3.800403595,-8.688878059,-94.622612,-5.610012531,36.88576126
2291,-1.076331496,-3.437482595,-9.458428383,-90.48014069,-17.70394897,42.7599144
2292,-1.153248429,-2.952752352,-10.25807571,-93.98431396,-16.44883347,41.65270996
2293,-1.433558583,-2.766424179,-10.0035944,-93.98152924,-11.51139164,40.61144638
2294,-1.269683361,-2.658256531,-9.796532631,-91.75476837,-13.52548981,43.18952942
2295,-0.781935453,-2.660593033,-9.772659302,-82.71976471,-9.907422066,41.08354187
2296,-1.138582587,-3.689402103,-9.719602585,-75.09960175,-6.024598122,34.89900208
2297,-1.270149827,-3.703537703,-8.774012566,-54.20235443,-12.97689438,24.82176399
2298,-0.549368083,-3.670712233,-9.034554482,-44.74692535,-22.76768684,20.7571907
2299,0.319225937,-3.802103996,-10.26937103,-39.99727631,-30.75402069,18.38829231
2300,0.356929421,-3.427911043,-11.31149197,-28.28524208,-29.49994659,12.10944653
2301,-0.524219394,-1.972277641,-10.75018501,-19.82583809,-15.95811749,2.723564863
2302,-1.671803236,-0.94363302,-8.904708862,-14.29670143,-8.39610672,-1.503441215
2303,-1.677485466,-0.048802711,-8.729567528,-14.28821659,-21.42370033,3.422075748
2304,-1.18805933,0.039078847,-8.288795471,-28.54533958,-30.65503311,6.068499088
2305,-0.843005598,0.011121701,-8.418753624,-50.64021301,-26.47463036,4.767929077
2306,-0.162200153,-1.921254039,-9.0234375,-51.51699448,-12.63544655,-1.468249679
2307,-0.697695017,-1.773447037,-9.008867264,-34.21837234,-4.160494328,-9.9240942
2308,-1.276744962,-0.80895561,-8.376142502,-25.9591465,-3.043194532,-12.00081444
2309,-1.966336131,-0.29932636,-8.706960678,-20.34963417,-2.891717196,-8.728221893
2310,-2.202400684,0.694856226,-8.881381035,-29.68280792,1.946846843,-5.471235752
2311,-2.382961035,1.468952775,-9.121726036,-44.38222122,5.200278759,-0.690510392
2312,-2.257407188,1.405800223,-8.987826347,-56.46326447,4.750101566,4.359670639
2313,-2.231548309,0.935547292,-9.062853813,-61.98871994,-0.090132333,9.334374428
2314,-2.547642231,0.49488306,-8.932899475,-58.43983078,-5.084837914,11.69200516
2315,-2.417547226,-0.072192907,-7.825565338,-46.08939743,-11.24180126,10.39901638
2316,-1.898320436,0.791425228,-6.761420727,-34.1749649,-24.4932251,10.4515934
2317,-1.556640863,2.280442953,-6.628229618,-25.65123177,-59.45178223,21.50848198
2318,-1.773802638,1.882582188,-8.377669334,-55.30690765,-50.79053116,31.71910858
2319,-1.761432052,0.87582624,-10.51325703,-106.6853561,-5.969044209,31.13851929
2320,-2.044227123,1.361200094,-12.370327,-101.9367828,11.75872612,26.90695763
2321,-2.384737015,1.277233481,-10.27134609,-88.1281662,11.63067722,27.05758476
2322,-2.44344449,2.367987156,-8.931509018,-75.8431778,11.82385445,34.95741272
2323,-2.775719166,2.60602355,-8.572852135,-81.55869293,14.74040413,37.6447525
2324,-3.185957909,3.514533043,-10.16995525,-82.73343658,15.85869884,38.00785446
2325,-3.10101223,3.51196456,-9.204410553,-86.61068726,20.68183708,41.83181
2326,-2.485075235,3.154870033,-8.705644608,-105.6491165,20.74958801,45.8310051
2327,-2.190571308,3.48135972,-8.706931114,-114.7867813,20.83703423,54.00634766
2328,-2.135669708,3.110426903,-7.867391109,-132.0041809,22.99131966,58.1517334
2329,-1.930291533,3.203966618,-8.295791626,-143.1400146,23.07208252,62.13693619
2330,-1.881247044,3.517065048,-7.655822277,-143.3661957,23.29030991,61.48607254
2331,-2.170161486,4.792678356,-7.004834652,-156.6480255,11.3385582,62.37994766
2332,-1.704279661,5.754041672,-7.112757206,-165.2770844,-2.90415144,65.96788788
2333,-1.693748593,6.009984493,-7.423457623,-154.0188751,3.888201237,62.85113525
2334,-1.730131507,7.048927307,-7.00290966,-155.2649078,11.718297,51.10810089
2335,-1.308572054,7.043250561,-6.920958042,-162.3479767,12.32678032,41.16526413
2336,-0.153887063,6.782372475,-6.13853693,-176.6321869,2.523070335,37.2784729
2337,-0.254208773,5.910851479,-5.309270382,-169.3057556,-4.526191711,36.69735718
2338,-1.163978457,4.952129364,-5.076227665,-131.0573578,-18.31672478,38.17554474
2339,-1.389866114,5.163644314,-4.573470116,-81.57369995,-37.95513153,38.55654526
2340,-1.024691224,6.19807148,-5.277711868,-30.15608788,-65.42196655,34.5504837
2341,-1.033331156,6.30960083,-5.469385624,2.039858103,-83.64112854,29.10689163
2342,-1.528805017,6.063995838,-6.366149902,8.185684204,-76.90732574,25.80777359
2343,-1.46002996,5.283567429,-6.884930134,27.22333717,-58.45261002,23.3920002
2344,-0.903947949,4.747809887,-5.15212822,33.60248184,-24.24599457,8.756595612
2345,0.398615092,5.183596611,-3.594170332,14.62778473,5.663161755,-12.26195717
2346,0.055335399,6.865727901,-3.223706484,15.0285387,7.069589138,-29.92137909
2347,-0.688911319,9.522925377,-4.50991106,55.05358505,-35.07982635,-24.89835167
2348,-1.418823838,9.011012077,-6.144806862,92.88369751,-63.51006317,-8.451417923
2349,-1.332214832,7.615244389,-6.077637672,82.52583313,-70.77565765,5.345420361
2350,0.160579711,7.596160412,-5.343170643,37.442173,-65.12509155,7.126754761
2351,0.647338629,8.22489357,-5.794954777,8.229932785,-41.78711319,-5.073422432
2352,-0.375588894,8.077658653,-6.558766842,18.40585327,-33.62791443,-17.01928329
2353,-1.504055023,8.193436623,-7.199560642,48.86954117,-31.86738205,-21.18099213
2354,-1.7087152,7.284686565,-7.370778084,63.56186295,-34.56681442,-16.08110428
2355,-1.704097748,5.641200542,-7.700316906,48.31150818,-25.68614388,-11.16214943
2356,-0.909824848,5.76364851,-7.316005707,20.9753685,-15.25209618,-10.32758045
2357,-0.389589846,5.760684967,-6.9707551,-7.290656567,-8.26043129,-1.851747513
2358,-1.096352458,5.777576447,-7.468291759,-21.2508049,-3.019409657,7.904585838
2359,-1.295672059,7.382448673,-8.357154846,-9.884874344,-6.25690794,13.08583069
2360,-1.00726974,8.707769394,-9.97898674,-0.305303812,10.70513058,16.63464546
2361,-1.337426305,8.663453102,-9.516714096,4.699725628,29.7441597,17.69172096
2362,-1.216484427,7.729940414,-8.105847359,2.580092669,56.39682388,8.358384132
2363,-0.973561525,7.477835655,-7.513259888,16.18049049,62.52350998,-2.471508026
2364,-2.145317793,6.343697548,-6.641210079,26.35224724,40.23470688,-3.750524044
2365,-2.531047821,6.194192886,-7.191421986,30.64843178,11.4610033,-2.397677898
2366,-1.774688244,4.754416943,-7.705719471,29.87257004,1.256364703,-8.350651741
2367,-1.524388313,3.734573126,-7.865619659,33.40707779,-0.704800427,-11.44703007
2368,-1.367999673,3.162855625,-6.379158497,42.00455093,11.59264374,-22.75501442
2369,-1.788468599,3.857578278,-5.863237381,49.79371262,18.15447044,-32.40077591
2370,-2.177629232,4.968253136,-6.003430367,60.17456818,7.824868202,-39.07388687
2371,-2.17300272,4.402834415,-6.240292072,61.13031769,0.992288291,-45.4893837
2372,-1.87815845,3.081093311,-6.434114933,59.4489212,-6.638938904,-48.7870369
2373,-1.767700791,2.728241682,-6.743430614,64.78364563,-10.98350716,-48.17852783
2374,-1.880138278,2.453227043,-6.653098583,81.40087128,-11.76275063,-48.14823151
2375,-1.195225596,2.878694296,-5.322171211,84.24029541,5.539542198,-55.88859177
2376,-0.947268784,3.743144274,-7.055513859,90.90026093,8.435385704,-58.25312805
2377,-1.583009362,3.112963676,-9.158182144,124.3958893,-3.223726273,-58.33919907
2378,-2.549331427,2.393176794,-9.883291245,145.7099304,-4.411613464,-54.42116928
2379,-3.306956768,2.236660957,-10.02498341,152.5410461,1.387534857,-51.85791016
2380,-3.246979475,1.669857383,-9.329985619,152.1063843,17.27144814,-49.90525818
2381,-2.488401175,1.528486609,-8.572095871,139.913208,38.13617706,-50.97953033
2382,-2.277733803,0.53398335,-8.151468277,128.4393311,52.57590103,-52.55893326
2383,-1.965066075,0.548655927,-9.151904106,168.66185,43.8325386,-61.26490402
2384,-1.911265731,0.849002242,-9.690520287,224.9888306,38.09490204,-70.24415588
2385,-1.822438478,0.085007489,-9.169300079,244.8588715,41.15674591,-68.25088501
2386,-2.145271301,0.453798085,-9.66767025,225.6325531,35.53925705,-61.42602921
2387,-1.943934798,-1.632901907,-10.29736423,217.1950684,29.92228127,-61.96553421
2388,-2.639977694,-3.497447968,-10.21136761,208.6290436,22.6327076,-61.77141953
2389,-2.986301184,-3.051408529,-10.99139881,216.0094604,21.05137062,-64.5041275
2390,-2.297014952,-2.362622261,-11.31144142,221.3362579,24.25499153,-60.45647049
2391,-1.882595658,-3.198111534,-10.59188366,194.2038879,26.18717384,-50.24292374
2392,-1.558167577,-3.190597057,-10.04332161,169.5762787,31.33604813,-43.02445602
2393,-1.483931065,-3.123717308,-9.589148521,148.459549,22.92554092,-39.24531937
2394,-1.892904997,-2.442764997,-9.605175018,126.298233,16.34554863,-30.83104134
2395,-2.444982052,-2.529025078,-9.611031532,104.7144623,9.351308823,-26.28106308
2396,-2.291593552,-3.851530552,-8.401277542,81.44993591,11.78773403,-22.51899338
2397,-1.800422668,-4.416656494,-7.450909138,50.00097656,12.42987823,-18.07265091
2398,-1.243027091,-4.551154613,-6.98198843,18.86419106,10.37657452,-9.222842216
2399,-1.377954245,-4.013415337,-6.428424358,3.217704535,1.389854074,1.487297654
2400,-2.124094963,-3.86613059,-6.859224319,-16.35754776,-16.85037613,9.14409256
2401,-2.591591835,-3.910979986,-8.547525406,-34.78684235,-21.76112938,6.180977345
2402,-1.30536902,-3.636737585,-8.262646675,-58.07600784,-24.67698288,8.757266045
2403,-0.237681389,-2.501406431,-8.264184952,-94.63340759,-22.16613388,16.90990067
2404,0.04317097,-3.873726606,-7.65735817,-128.7095947,-10.9290905,22.57432175
2405,-0.622734845,-5.000708103,-7.395932674,-153.0055695,-9.467892647,28.5486145
2406,-1.30339098,-4.845299721,-7.857814789,-139.5435791,-19.08600044,31.60404396
2407,-0.885073662,-4.542571545,-8.291004181,-137.6176758,-22.50151634,36.1937027
2408,-1.178700089,-4.011372566,-8.297276497,-151.812561,-12.18368721,41.9831543
2409,-1.596602917,-3.233287096,-8.525838852,-146.7866516,-17.10959053,48.44152069
2410,-0.92367363,-3.522881746,-9.81206131,-137.3949585,-11.63810921,45.54431534
2411,-0.417951643,-3.119994402,-10.12195587,-111.8655243,3.767225981,33.31355667
2412,-0.536419094,-2.346029758,-9.569842339,-87.28362274,10.86027622,30.10317039
2413,-0.078724615,-2.535606861,-9.771709442,-80.09195709,4.198984146,29.38986397
2414,-0.447380304,-2.721848011,-10.401021,-68.77957916,-3.104572773,22.19616318
2415,-0.99526757,-1.775196314,-11.174613,-56.14066696,-9.340785027,16.37664795
2416,-1.376049876,-0.873089075,-11.15695858,-48.37920761,-6.426714897,3.351725101
2417,-1.38862443,-0.9009341,-10.22848701,-37.48820114,1.292942047,-5.457837105
2418,-0.609417379,-1.645688891,-9.435306549,-18.43292046,2.929578304,-5.802987099
2419,-0.776069105,-1.894265532,-9.402235985,-10.72202301,3.209485054,-8.900803566
2420,-0.935741603,-1.664031982,-9.106479645,9.75232029,-0.422764152,-23.83357811
2421,-0.314088851,-0.589078307,-9.305636406,25.15951157,-2.165632963,-36.38006592
2422,-0.424696326,1.122971892,-9.831264496,21.57887077,-3.437816858,-29.72399712
2423,-1.207401991,0.553587258,-8.950288773,0.362362653,3.96387291,-20.93371391
2424,-1.39856112,-0.05257874,-8.447296143,-9.828481674,5.175663471,-19.94494057
2425,-2.18739152,-0.044446975,-8.553825378,0.621870935,-0.3529948,-21.62001038
2426,-2.172855854,0.322483212,-8.971207619,9.088212013,-3.868470669,-18.42014313
2427,-0.825769126,0.433517873,-9.132005692,6.508669853,-5.706857681,-6.715678215
2428,-1.167293906,0.469844043,-9.359045982,-12.37283802,-5.595405579,-0.091911234
2429,-1.795579553,0.908634305,-9.689195633,-26.74552917,1.526949883,3.180164337
2430,-1.402263522,0.997803152,-9.113735199,-50.96949005,5.356441498,9.758037567
2431,-0.780556858,-0.052609041,-7.747620583,-75.26355743,-0.779423535,16.77339554
2432,-1.028166771,0.252460808,-7.139355659,-85.40952301,-8.802225113,20.51161575
2433,-1.543553472,1.502472878,-7.602402687,-78.36868286,-25.60975647,30.05500793
2434,-1.52231431,1.749427676,-8.32609272,-91.22222137,-43.12428284,39.95349503
2435,-1.238254786,1.862863421,-9.701443672,-103.9279327,-37.53433228,48.37950134
2436,-2.070565462,1.017537117,-9.678505898,-109.3428574,-24.71203232,48.40048218
2437,-2.836663723,1.501161218,-9.640197754,-118.0251923,1.701695681,46.75988388
2438,-2.448963642,3.416601658,-9.84075737,-123.2920074,21.77318764,46.18003082
2439,-1.576307893,4.002266884,-8.543710709,-141.6851044,20.28503799,50.28836823
2440,-1.978125334,4.078960896,-8.382237434,-164.5465851,4.794551849,63.64588928
2441,-1.8129673,4.073715687,-9.538928986,-189.0342407,-0.007185404,73.38430023
2442,-1.611132026,3.494069099,-8.761789322,-208.5252991,7.347735882,69.2988205
2443,-1.665685773,3.604985237,-8.543045998,-225.0809021,16.22726059,67.21669006
2444,-1.575470567,3.13765192,-7.909012794,-220.0575256,20.46211433,60.27019882
2445,-1.469895482,4.718444824,-7.349770546,-216.450943,21.86063576,51.49764252
2446,-1.369671822,6.868265152,-7.566126823,-208.9611359,18.18875122,42.63786316
2447,-1.420331359,7.186623096,-7.573141098,-201.3232422,2.04549861,42.4657135
2448,-1.643746495,6.805577755,-7.6087327,-190.5764008,-9.857505798,42.31867599
2449,-1.600815654,5.603223324,-6.916498184,-166.6887817,-12.27803135,39.37733459
2450,-0.606513619,5.448522091,-5.535694599,-130.8376465,-16.5194664,34.48677063
2451,0.254862189,5.923277378,-4.998538494,-109.4771118,-17.05919266,25.09869957
2452,0.645148814,6.696897507,-4.620554924,-76.69299316,-30.08127785,19.42185211
2453,-0.307554543,7.244811058,-5.244202137,-32.90795517,-53.64283752,16.64839363
2454,-1.418243289,6.59717989,-5.492136002,7.748640537,-79.45296478,12.55379581
2455,-1.283688903,5.818853855,-5.69034338,23.61004066,-75.66781616,9.580447197
2456,-1.832546949,6.166307926,-6.193611145,40.62670517,-55.11389542,4.419499874
2457,-2.005969524,6.234148026,-6.134030819,67.15006256,-40.81793976,-0.905287564
2458,-1.426517844,6.380374908,-4.60696888,84.52339172,-26.30443764,-10.26448631
2459,0.173062652,6.752482414,-3.605575323,80.70423126,-8.851745605,-26.8417511
2460,0.790305376,7.652834415,-3.605545282,66.38788605,-8.888001442,-33.97895813
2461,-0.676661015,8.686849594,-5.424998283,97.61315918,-24.39364052,-21.42714119
2462,-1.449447393,8.570023537,-5.034401894,126.9379883,-50.91592407,-3.754211903
2463,-0.365816176,7.778562546,-4.554522991,75.55429077,-39.49127579,-4.660247326
2464,-0.37048614,7.236567497,-5.85403347,46.34269333,-13.28576756,-12.61975574
2465,-0.847123086,6.604385853,-6.150655746,68.57169342,-10.29037571,-12.56438828
2466,-0.889530659,6.103443623,-6.255804539,76.62456512,-5.619509697,-15.97047806
2467,-0.782726347,6.413000584,-7.029619217,82.86940002,-9.147120476,-19.34789658
2468,-1.132135868,6.967447758,-7.972177505,73.42983246,-8.035635948,-18.43848419
2469,-0.916280687,7.53069973,-9.161559105,58.91382599,-3.253969669,-15.37686157
2470,0.148235142,6.784152508,-8.392877579,38.05227661,-9.526379585,-12.37153149
2471,0.144662395,4.753418922,-7.623500824,-0.15573813,-12.75859261,-8.361503601
2472,-0.639002025,4.260603428,-7.805897713,-1.911643386,-4.503931999,-11.6101017
2473,-1.50583446,5.595986843,-8.535486221,19.10808372,-7.114745617,-7.664741039
2474,-2.257933378,6.061714172,-9.879667282,38.55654144,-2.957462788,-4.28848505
2475,-2.407692194,4.959106922,-9.174383163,65.89487457,18.99606514,-1.782673001
2476,-1.83859086,5.301812172,-6.581235409,73.4822998,56.89176559,-11.30545998
2477,-1.179858088,4.86220932,-7.168169022,49.47945023,39.54390335,-7.764997959
2478,-2.019471884,4.299738407,-8.707303047,41.82662201,16.63553619,-3.787800074
2479,-2.53532505,4.322088242,-9.483864784,53.98303986,-11.36520863,-6.823540688
2480,-2.262981176,4.99105835,-9.469115257,71.59603119,-22.05070305,-10.72507381
2481,-2.138173342,2.668664694,-8.418867111,62.47468185,-11.01884937,-14.34705162
2482,-2.050528526,1.663679004,-7.841697216,73.2049408,-5.710114002,-25.33846474
2483,-2.864852667,2.589287043,-7.38092041,86.43141174,-10.35007381,-32.88946152
2484,-3.126746416,3.878109932,-7.168944359,72.14045715,-14.9873867,-33.81610489
2485,-2.679834843,3.408569813,-7.072556496,42.23599243,-13.15548611,-35.98644638
2486,-1.998472691,2.213483095,-7.528250217,27.39669037,-20.25374222,-34.88195801
2487,-1.941198587,1.498433948,-7.608561516,26.10419083,-25.6914196,-30.48615646
2488,-1.670507431,1.557128549,-7.100989342,26.43956566,-17.76377869,-28.42074013
2489,-1.537621021,3.213577032,-5.940083504,26.38055229,-4.652756691,-33.94930267
2490,-0.454266429,4.014580727,-7.494442463,47.31493378,-12.51315689,-40.13310242
2491,-0.505567789,1.276553035,-7.732310295,65.40026093,-20.24635124,-44.20659256
2492,-1.554988623,-0.329929471,-9.93399334,87.08856201,-10.31139755,-48.89764404
2493,-3.216064215,-0.02724275,-11.45641613,114.6122971,2.851404667,-46.97757721
2494,-4.720254421,0.928284168,-10.02790356,120.1676025,23.52132034,-47.28888321
2495,-4.421969414,1.486154675,-8.937434196,140.9959564,45.33361053,-55.34282303
2496,-2.564891338,-0.244977713,-7.750954151,158.1336823,51.48148727,-66.3787384
2497,-1.721111059,-0.883559883,-8.720556259,176.2980347,45.08300781,-72.27022552
2498,-1.825358152,-0.566346288,-9.204437256,209.0700836,50.00827408,-76.1954422
2499,-2.002803087,-1.358895183,-9.424016953,225.1204071,43.31816101,-71.55243683
2500,-2.33782053,-1.60366869,-10.34567356,240.4485321,24.75905991,-66.2841568
2501,-2.193366051,-3.174445152,-9.984300613,237.7161102,18.8532486,-65.1529541
2502,-2.485491276,-4.181436062,-10.00993538,211.4612122,24.73971748,-59.044384
2503,-2.551509619,-3.826766968,-10.55115891,208.500885,31.11279297,-57.65811539
2504,-2.359642506,-2.912739515,-10.25647354,217.2190247,30.96960449,-55.55786133
2505,-2.318276644,-2.657467842,-9.42019558,206.0825043,26.78876686,-50.79092789
2506,-2.052902699,-2.554975271,-8.812287331,176.2693176,31.05770683,-45.86340714
2507,-0.795780599,-3.063646078,-8.35874176,133.3788452,33.66044235,-44.47883224
2508,-0.791043162,-2.818815947,-8.971580505,90.1319809,23.44162178,-35.63637543
2509,-1.459984899,-2.932934999,-9.555954933,71.64756775,19.65596008,-20.71437073
2510,-2.316438198,-4.347931862,-8.51336956,49.8662262,19.41547775,-14.68617535
2511,-2.15108633,-4.722856998,-7.562191486,17.85684586,13.73056698,-10.08381844
2512,-1.505093336,-4.230639935,-7.116507053,-1.556010604,12.08003712,-1.564616442
2513,-1.489620686,-2.906491995,-6.947773457,-20.73093224,8.110795021,6.018080235
2514,-1.746047497,-2.452903271,-7.543967247,-33.64632797,-1.729006052,14.20899773
2515,-1.822853088,-4.76846838,-8.053245544,-59.27573013,-19.45453644,20.35939026
2516,-0.639781058,-3.914467335,-8.32054615,-101.1322937,-27.50002098,30.3559494
2517,-0.124711335,-2.732374668,-7.907605171,-137.1647186,-18.76304817,40.06374359
2518,-0.259351581,-4.47729826,-7.280414581,-174.3881531,-4.842028618,42.70271301
2519,-0.754117012,-4.763382912,-7.616861343,-186.7901459,5.377547264,40.15919495
2520,-1.292727828,-3.457351923,-9.038961411,-170.0825653,-0.584787905,39.18769836
2521,-1.114649415,-2.741032362,-9.983163834,-174.1604462,-0.538171649,46.42710114
2522,-0.758029044,-2.897041798,-10.35224056,-177.56604,14.32815933,44.69668579
2523,-0.943988144,-4.018485546,-10.57659721,-154.7918243,16.66453743,38.42033386
2524,-0.700253248,-4.897646904,-9.688916206,-117.9656754,16.8650341,29.54847717
2525,-0.064578608,-4.093672752,-9.04037571,-82.76967621,13.56724072,18.37712288
2526,0.084530801,-4.582443714,-7.79676199,-51.51480865,-3.074604511,11.65602589
2527,0.129392639,-5.080740929,-8.100989342,-19.44627953,-23.64452171,8.370969772
2528,0.130947649,-4.722285748,-9.925050735,-8.438877106,-31.23766899,0.297665477
2529,-0.041267954,-2.920971155,-11.20495701,3.496810913,-15.94832134,-13.00248432
2530,-0.281766117,-1.504715681,-10.835639,11.81020832,2.901110411,-17.71092987
2531,-0.5448457,-1.157372117,-9.770287514,14.50178242,7.409360886,-13.12414551
2532,-0.535865545,-1.454278827,-8.506856918,9.02990818,18.0478363,-11.6531601
2533,-0.621516883,-1.616864681,-8.272140503,12.01415157,10.68826962,-16.91016388
2534,0.562489748,-1.220107079,-9.100914955,25.28279877,-0.941257179,-17.94986343
2535,0.707449913,-0.405433357,-9.278770447,29.39780807,-5.148058414,-16.64622307
2536,0.278569669,0.201859444,-8.566918373,8.526288033,-6.573273659,-9.675806046
2537,-0.981627524,-0.73532939,-9.278318405,-14.79599667,-3.219109535,-4.959993362
2538,-1.511429548,-0.911382139,-10.19249153,-5.079397678,-3.285982609,-8.286429405
2539,-1.579762816,-0.137425512,-10.44436646,10.06319237,-10.49846077,-3.450148106
2540,-1.855445981,0.285744697,-10.36818218,6.346123695,-17.70218658,3.30000186
2541,-2.08293438,0.279144526,-10.5402317,-8.273209572,-18.61208534,8.320586205
2542,-1.849644303,0.531921983,-10.26670265,-26.25653839,-15.23918056,12.87278175
2543,-1.346284986,0.756094992,-9.259467125,-54.7967453,-11.73817444,19.07248306
2544,-0.952641487,-0.528257072,-8.189184189,-75.94384766,-17.70339394,26.22161865
2545,-0.973240852,-1.237615943,-8.067710876,-77.96872711,-31.79498482,29.21474838
2546,-0.6708619,-0.68692255,-8.349812508,-86.0022049,-40.58760071,31.81939316
2547,-1.152426362,0.318359137,-9.357922554,-99.399086,-36.28654099,36.08453369
2548,-1.389143586,0.594079256,-9.559584618,-99.16339874,-30.14234161,41.23007202
2549,-1.595000982,0.296927094,-8.967376709,-109.9899063,-17.07351685,45.67216492
2550,-1.967452049,0.559586346,-8.565068245,-119.0500107,4.646957397,47.53689575
2551,-2.413207054,1.710188031,-8.825320244,-127.8323212,14.13491917,51.0380249
2552,-2.618941784,3.382091761,-9.629541397,-132.6006012,10.46789742,57.71811295
2553,-2.456649065,3.260084391,-9.125106812,-140.2271271,3.489651203,68.07806396
2554,-2.352653503,3.444735765,-8.778315544,-170.3757477,11.32543755,75.43930054
2555,-1.860293031,5.06474638,-9.923116684,-199.4716339,8.190054893,79.97433472
2556,-1.201140165,5.030901432,-9.923251152,-214.6091766,12.02291203,75.84194946
2557,-1.850030184,3.412396669,-8.556278229,-230.2648621,27.44139099,74.48373413
2558,-2.430144072,4.340167999,-8.077945709,-246.9590912,27.75535774,66.74643707
2559,-1.971026063,5.554268837,-8.206958771,-245.7041168,17.79832458,58.89912796
2560,-1.395998955,6.045789242,-8.115659714,-232.9717712,4.255819798,58.01409149
2561,-1.72732079,5.984316349,-7.90922308,-221.1165466,-6.463065147,61.01018143
2562,-1.866332531,5.177997112,-7.802294254,-201.5360413,-8.365427017,56.25276566
2563,-1.238363028,5.806693554,-6.379221916,-174.9761505,-5.92056179,46.96050262
2564,-0.432122231,6.567696095,-5.359055042,-151.3230743,-10.75423622,41.26399231
2565,0.110299267,6.524791241,-4.504595757,-125.4131241,-14.37880898,37.41218948
2566,0.249477714,6.019052982,-3.847283363,-93.15907288,-25.8291378,34.45819855
2567,0.239426166,6.558330536,-4.728417397,-56.04550171,-51.61275101,29.37187576
2568,0.349489093,6.710745335,-5.672502041,-18.07596207,-74.15010071,22.70130157
2569,-0.397347689,6.293361664,-5.148079395,7.331852913,-75.77108002,19.92841339
2570,-1.946799397,6.442705154,-5.179899693,32.04400635,-66.07774353,14.82419968
2571,-1.606709123,5.243203163,-5.386526585,67.16029358,-44.48376465,8.152575493
2572,-0.149247363,4.851075649,-3.996737242,65.20729065,-12.12239933,-5.280498981
2573,1.431671262,5.24178648,-2.84907937,40.65221024,21.90620613,-27.12769699
2574,1.457681656,7.114613056,-2.387889147,47.56634903,34.51948166,-48.40864944
2575,-0.204189554,9.613256454,-4.25645256,95.44867706,5.309288979,-42.77096939
2576,-1.333885908,10.27658272,-5.097757339,132.545929,-33.30440521,-24.39685631
2577,-0.096508205,9.433796883,-4.589711666,89.33357239,-37.20515823,-21.37836647
2578,0.165617973,7.984935284,-5.919347286,43.39940643,-21.82401276,-23.61507416
2579,-0.879150152,7.799022675,-7.336467743,53.05262756,-20.70114899,-19.52860069
2580,-1.269884586,7.37128973,-6.734649181,81.70690918,-25.7950592,-18.40175247
2581,-0.903393328,7.844344616,-6.819252014,77.11379242,-22.07935905,-23.52645874
2582,-0.905525506,7.735395432,-7.754622936,70.02079773,-11.33076954,-23.24372292
2583,-1.516966224,6.944118023,-8.433290482,60.70185852,-1.528304696,-12.08782005
2584,-0.578951418,5.068375587,-7.819302559,32.62147903,20.13959885,-11.06616879
2585,0.498505831,4.844745636,-7.059271336,4.228039265,31.05770111,-11.16565609
2586,0.558938026,7.322819233,-8.015110016,-17.47580338,13.30655575,-1.728386283
2587,-0.155335903,8.050863266,-8.276441574,-26.39348412,-2.284415722,9.078221321
2588,-0.702417016,8.41691494,-8.950881958,-24.37635994,-9.612736702,17.39570236
2589,-0.288795859,7.63400507,-8.966111183,-21.48015022,-1.388507485,21.77516365
2590,-0.376068115,5.815905094,-7.795189381,-38.34368896,24.98036385,22.31778526
2591,-1.197443128,4.808402061,-7.794531822,-32.43650436,40.15282822,18.29162407
2592,-1.299039721,5.202902794,-7.913639545,8.464426994,38.20595169,12.47714043
2593,-1.469536781,5.084062576,-7.056977272,27.35702133,30.75630188,5.076846123
2594,-1.564892054,6.129003525,-7.548880577,25.18669891,3.680547476,-3.503915787
2595,-1.004423261,5.659420967,-7.617157459,36.46292114,-10.95985031,-11.24881458
2596,-0.176191643,3.836820602,-6.607372284,40.2748909,-2.994454145,-21.3589077
2597,-1.315542698,3.301984549,-6.291938305,61.24087143,4.45930481,-32.70977783
2598,-2.248555183,4.402671814,-6.261098385,95.76586151,-5.837882996,-41.27703094
2599,-1.838355303,4.875112057,-5.544275284,97.3742981,-14.62677193,-46.90992737
2600,-1.693478703,3.711449862,-5.83477211,77.18366241,-32.31124496,-43.74814606
2601,-1.774421453,1.654572845,-5.986351967,68.89212799,-41.93215942,-36.74943924
2602,-1.818347812,1.139460564,-6.277040482,51.91402054,-38.89064407,-32.33740234
2603,-0.796706259,2.626729965,-6.178109169,64.33901978,-23.61953926,-34.88240814
2604,-0.284539551,3.634685993,-6.400496006,91.66209412,-14.1058588,-40.53573227
2605,-0.991300523,3.63260603,-6.933312893,105.9443588,-9.776474953,-47.04147339
2606,-1.426452041,3.222637653,-8.637553215,119.9355011,-4.637019634,-57.34349442
2607,-2.045332909,2.288910389,-9.830331802,128.9414825,1.762326121,-62.67063522
2608,-3.724945545,1.677677393,-11.64157009,150.374588,7.78416872,-63.29099274
2609,-4.062374592,2.69620347,-12.0875082,175.7868805,6.575334072,-65.25241089
2610,-2.61755991,2.345136404,-9.764986992,179.1672668,25.63132668,-66.55353546
2611,-1.267434239,0.18959941,-8.118281364,165.5880737,43.18609238,-68.53291321
2612,-0.822042346,-1.318316579,-7.831341267,186.468689,46.7314682,-72.12466431
2613,-1.660451531,-0.264093965,-9.01633358,220.9594574,36.91859818,-71.45565796
2614,-2.819493532,0.142678529,-10.13497162,245.4107208,25.06737518,-65.90438843
2615,-3.415468931,-1.901326537,-9.969768524,255.489563,30.24200821,-73.06677246
2616,-2.320469379,-3.314226151,-10.03615093,235.796463,31.00473595,-72.25358582
2617,-2.291332245,-2.75982666,-11.00495052,234.6728668,22.69347954,-64.61885834
2618,-2.84394002,-1.854609966,-10.59037399,245.4234009,20.70664215,-63.55400848
2619,-2.790340185,-1.358925462,-10.41941166,222.6023102,27.05766487,-58.08597183
2620,-1.878001928,-1.798564792,-10.2638607,178.6564484,30.21518707,-49.59064102
2621,-1.28849721,-3.421611786,-9.288613319,136.020401,29.63892746,-46.39304733
2622,-1.196583867,-2.938621521,-8.573540688,102.592453,26.45008659,-36.04322815
2623,-1.105831265,-1.413713574,-8.791537285,73.02081299,22.30009651,-21.83235168
2624,-1.304078817,-2.467805862,-8.704348564,44.38895416,19.50805092,-10.86698627
2625,-1.483553171,-4.896988869,-7.872569084,12.24373531,25.85693932,-9.21023941
2626,-1.038657665,-4.707198143,-6.659171581,-20.73683548,35.40634918,-4.031251431
2627,-1.149705887,-3.740707874,-7.06096077,-38.76716995,17.22976685,6.986555576
2628,-2.033563852,-3.135630846,-8.170166969,-50.58622742,-2.633664131,13.89380169
2629,-1.907333136,-3.34993434,-8.768543243,-68.56383514,-22.20386124,17.77332115
2630,-0.544561446,-3.519987345,-8.419743538,-95.38815308,-25.07784653,21.50137138
2631,-0.078067422,-3.597345352,-7.575479031,-132.745636,-16.63753319,25.42640495
2632,-0.563848495,-4.071922779,-7.861379147,-138.7460938,-6.65844202,28.50694847
2633,-0.801430941,-3.243821621,-9.89574337,-127.8640213,-18.15957451,37.25571442
2634,-1.346971631,-3.497729301,-10.73060131,-129.6031952,-23.11700249,46.8792038
2635,-2.204540014,-3.268589973,-11.31710911,-135.9992218,-20.33071327,50.75779724
2636,-1.825482368,-3.044170141,-10.31421757,-137.957428,-12.07966614,49.93444443
2637,-1.139689684,-2.966329336,-10.03067589,-129.7055664,-13.76109123,50.79896164
2638,-0.099383622,-3.896514654,-10.24545765,-120.2952499,-15.91261101,47.28403854
2639,0.123174883,-4.702927113,-10.30736351,-95.27534485,-14.87347984,39.16519928
2640,0.113985494,-3.99778676,-9.310117722,-62.8470993,-16.06259918,24.56074715
2641,0.148876548,-3.779197693,-8.486784935,-40.52418137,-23.97135544,16.78359222
2642,-0.205879256,-3.202258348,-9.118113518,-31.23147774,-25.18517494,13.07514095
2643,-0.50659734,-3.079084158,-10.37054825,-22.30054665,-19.49223328,1.983037233
2644,-0.799072623,-2.678983212,-10.89549255,-8.520763397,-6.9642272,-11.27449036
2645,-1.127909422,-0.899679959,-9.369496346,10.18370438,-2.971025705,-15.31815434
2646,-1.923316002,-0.01975972,-8.790214539,12.46677685,-9.379321098,-14.2505312
2647,-1.444637299,-0.829370975,-8.165184975,1.67486155,-12.44607449,-15.15610504
2648,-0.600785196,-1.670084119,-9.543780327,15.49602127,-12.65291882,-22.93592644
2649,0.391214013,-0.665182233,-9.458174706,34.32048798,-8.177091599,-28.22331238
2650,-0.39421019,0.737535894,-9.237217903,29.2778759,-4.790941715,-20.9476738
2651,-1.314558387,0.756331623,-8.771173477,8.84016037,-0.982068539,-14.05500603
2652,-1.426630497,-0.135269463,-9.230360985,-5.611462593,3.135501146,-9.466175079
2653,-2.083826303,-0.164865896,-9.446836472,-5.488677502,7.079874039,-11.44292927
2654,-2.228808165,0.83340472,-9.239966393,-8.70450592,4.310280323,-9.180992126
2655,-2.005507708,1.401954889,-9.269866943,-24.89052582,-4.344102383,-0.857976079
2656,-2.745743752,1.166521668,-9.376623154,-47.24632645,-9.123308182,8.497385979
2657,-2.575730085,0.844588339,-9.162605286,-59.26508713,-14.74646187,15.65465546
2658,-1.435061693,1.369993091,-8.617806435,-71.18449402,-20.82677269,21.20574188
2659,-0.740135312,2.087504625,-7.830686092,-75.53050232,-27.32915688,26.55632019
2660,-1.265962362,2.239582777,-8.140645981,-71.71096802,-26.87060165,33.91884613
2661,-2.070453644,1.010531187,-8.931593895,-69.69989014,-21.29002762,42.39834595
2662,-2.215370417,0.246100247,-9.192914009,-85.67583466,-8.38465023,46.17540359
2663,-2.019756794,0.053562231,-8.866703033,-104.8747864,5.109208107,45.98643494
2664,-1.900312304,0.281972796,-9.003126144,-103.3289185,9.907341003,48.64910889
2665,-2.469927549,1.499888897,-8.696825027,-94.71755981,13.90642262,49.15151978
2666,-2.059342623,3.22935462,-9.40789032,-98.87184906,7.074186802,51.65299988
2667,-1.507541299,3.819558144,-9.3042202,-133.3747253,5.979099751,59.46166611
2668,-2.029874325,3.713243008,-9.385087967,-177.1732178,10.26591587,64.15190125
2669,-1.749419451,3.594504356,-9.290589333,-206.2927399,7.712267399,69.05153656
2670,-1.53926158,3.84637785,-9.071593285,-222.549118,9.519757271,72.58913422
2671,-1.555775881,4.260677338,-8.285342216,-226.3999176,16.82601547,71.04131317
2672,-1.475068331,4.853369236,-7.700797081,-229.9671936,17.54550934,65.59410858
2673,-1.423074722,5.255133152,-7.665148735,-233.6891022,15.94982338,55.94445419
2674,-1.611841679,5.533336163,-7.403000832,-218.7671509,6.294092655,52.18968582
2675,-1.293167472,7.035571098,-7.168198109,-199.7030334,-1.288856864,49.5071907
2676,-0.664462745,7.222150326,-6.879638672,-194.2424469,-3.194673538,47.03197098
