PacketCounter,Acc_X,Acc_Y,Acc_Z,Gyr_X,Gyr_Y,Gyr_Z
803,16.23668861,-0.034334868,5.650343895,-94.14320374,107.8154373,-14.84768867
804,11.96555901,-0.487921894,7.500826359,-163.9482574,98.97982788,-28.5708847
805,8.13909626,-0.734813571,5.477036476,-209.9247284,51.14796829,-40.9805336
806,6.32404089,0.012049507,-1.024223328,-186.1788025,35.42341232,-33.86735916
807,5.259765148,3.866495848,3.673993111,-171.5343628,73.34061432,4.429696083
808,5.154275894,5.323163033,7.425980091,-206.4059906,93.0430069,42.92757034
809,3.645680904,1.724634886,4.884250164,-247.1817627,103.3106537,54.71097183
810,5.210300446,-1.853588343,3.341443539,-238.625946,97.88188934,48.84557724
811,6.108161449,-3.479370117,2.70092845,-204.4105377,83.44970703,41.1056366
812,6.083075047,-3.959830046,2.371548653,-162.8689117,69.54935455,38.84248734
813,6.176226616,-4.298357487,1.670148969,-138.6051941,60.99833679,47.14268494
814,5.877388,-4.709479809,1.94556284,-123.6438675,52.30617523,59.93210983
815,4.715634823,-4.436283112,2.391507626,-111.6887283,51.44120026,60.46264648
816,4.663323402,-3.886043787,2.067208052,-105.835289,55.86725616,54.75779724
817,4.894881248,-3.630684853,1.862182379,-112.7604675,61.76040268,50.5606308
818,4.99394846,-2.549975872,2.52466321,-103.7657471,56.06734467,57.29259109
819,4.199648857,-2.91821909,3.18757081,-90.61090088,44.60926437,71.63860321
820,3.005021811,-3.234899044,3.148401976,-86.89237976,35.89144135,80.34430695
821,2.675848961,-3.669026375,3.051150799,-90.7201767,23.44620323,77.26277924
822,3.281289816,-4.000400543,2.759655714,-91.73396301,9.079423904,72.22488403
823,2.949207306,-4.728558064,2.260117292,-92.06758881,-7.221458435,72.09056854
824,2.989230156,-6.257608414,2.118915558,-90.7742157,-19.44094086,71.81050873
825,3.511223078,-8.303387642,2.249592066,-80.98257446,-25.11218643,73.7378006
826,2.805816412,-9.57245636,2.230435848,-70.90453339,-29.35011482,72.61888885
827,2.308629751,-9.282421112,1.745224953,-55.78525543,-33.20428085,67.86048126
828,2.81210804,-8.042931557,3.185624838,-53.67435074,-29.2940979,65.85878754
829,3.14908576,-5.252449989,3.508675575,-72.71188354,-27.89977074,65.84945679
830,2.622298956,-4.409729004,2.833084583,-101.6981812,-33.10330582,63.3515892
831,2.548904419,-6.27752018,2.249067545,-133.8431091,-29.74508095,55.59589005
832,2.907412767,-8.598155975,1.171950817,-153.8704224,-17.39394569,56.83536911
833,3.211728334,-9.263092041,1.21256125,-165.47789,-11.26867104,62.27102661
834,3.177514553,-8.532980919,1.625075221,-167.6344147,-3.321977377,67.25361633
835,3.261471033,-8.714743614,1.724384189,-172.0925293,2.059025764,64.48905182
836,3.165560484,-9.642219543,1.573108912,-178.0236816,-4.414690018,58.15187073
837,3.41569066,-10.37837029,1.23036921,-195.8384247,-15.38237858,64.44530487
838,2.544773817,-9.434135437,0.394858032,-218.7028961,-24.12673187,69.66362
839,2.068873405,-8.550451279,-1.170711875,-251.1179657,-20.55828094,68.44779968
840,2.230305433,-9.650361061,-2.251794815,-267.3841553,-13.9851284,63.6875267
841,2.376469851,-10.16327763,-2.575226068,-264.7333679,-18.57977104,53.75164795
842,2.373223305,-10.30532551,-3.579139471,-259.1035156,-19.98791504,50.00746155
843,2.200264692,-9.833716393,-4.047290325,-260.4910583,-16.46977615,47.59272003
844,2.693253279,-9.464500427,-5.250083447,-241.670517,-1.05385375,43.50912094
845,2.669423103,-9.435127258,-5.775991917,-230.2142639,-0.835249305,36.48243713
846,2.273160458,-8.980653763,-5.731216431,-216.853653,6.194911957,28.00335884
847,1.57997942,-8.622620583,-6.334374428,-223.4120636,-0.611702204,27.76335907
848,1.286000848,-8.342097282,-7.808022022,-246.2147217,-2.072966099,32.1216774
849,1.391771317,-9.038589478,-9.231498718,-257.158905,-8.297277451,31.17045975
850,1.442666531,-9.833872795,-9.972457886,-249.5091095,-7.135522842,21.37829018
851,1.949944496,-10.42772484,-9.096512794,-223.6639404,-3.182068825,7.486690998
852,2.68067193,-10.03563118,-8.454465866,-200.2648315,-8.851703644,-0.438852519
853,3.03891325,-9.790030479,-7.807288647,-174.1977844,-18.27526093,-5.084100246
854,3.132466555,-9.011727333,-6.985212326,-144.564621,-26.49573517,-11.5735178
855,2.792061567,-7.767203808,-7.105396271,-121.2593384,-24.63796043,-18.26355934
856,2.90563798,-6.716956139,-7.104106903,-95.58072662,-24.89278221,-26.68521118
857,2.336166143,-5.340849876,-7.608539581,-68.28398895,-23.24481964,-34.1385498
858,1.99710989,-4.37398386,-7.731328011,-49.80861664,-17.24431992,-38.26553726
859,1.992213488,-3.249353886,-8.269644737,-38.31919479,-21.40514755,-43.23456955
860,1.934758663,-3.322422981,-8.954154015,-31.50824356,-25.51298904,-51.79670715
861,2.553805113,-3.825201273,-9.501976013,-18.53926086,-38.83153915,-60.47014618
862,2.983941793,-3.401103258,-10.20758057,-0.984494328,-52.80180359,-67.22241974
863,3.515837908,-2.309528112,-10.49789429,15.18575764,-63.25227737,-62.65830612
864,3.484747887,-1.859901905,-10.01384449,23.97086906,-65.01609802,-49.89052963
865,2.284052849,-1.932125807,-9.624829292,22.7758007,-69.67764282,-36.15600586
866,1.827992439,-1.996299744,-9.268483162,12.29441738,-73.71472931,-22.24928093
867,1.430069685,-1.695071101,-9.215338707,-4.084721088,-73.2832489,-7.405996323
868,0.715698898,-1.229268789,-9.148902893,-27.84086227,-73.14957428,6.150139809
869,-0.980223477,-1.19530499,-9.555364609,-53.49039841,-57.77470779,11.45196247
870,-0.615481794,-1.672861934,-9.931836128,-79.84082031,-33.25864792,18.07629395
871,-0.297216415,-2.043884754,-10.22460842,-96.38192749,-7.077291489,28.30806351
872,-0.692055702,-2.379314423,-10.0831213,-102.3561935,8.153845787,34.59116364
873,-0.852452874,-1.335193872,-10.42444611,-106.0676651,15.52079391,36.45526886
874,-0.684270144,0.1374183,-9.679104805,-122.9331055,26.28600883,40.6578598
875,-0.306857973,0.187081262,-9.764857292,-146.9513855,43.22649765,45.66999054
876,0.629654408,0.655794501,-9.963066101,-172.6326447,47.38728714,47.72638321
877,-0.373859793,0.888950408,-10.08438969,-202.2317657,56.76702499,49.75631714
878,-0.998896539,-0.671269774,-10.62195015,-219.1979065,68.67993164,43.76077271
879,-0.444548935,-1.259019613,-10.87192154,-208.785965,73.83208466,32.1326828
880,1.465347528,1.527838945,-10.82881737,-207.9921112,64.15833282,26.0778656
881,3.195384026,2.537135601,-11.62090492,-210.2609406,37.88557816,31.35216331
882,3.703462839,2.372352362,-12.25355148,-220.1084137,14.63831615,33.67139053
883,3.20126009,1.313414454,-11.73198891,-229.4219818,5.488546371,32.04912567
884,2.220242023,0.611736,-10.66694546,-223.9095154,9.979854584,27.07721329
885,1.514086485,2.094120502,-11.0054245,-212.7570343,19.36347008,15.75067616
886,0.543625534,3.591140509,-11.3535862,-196.9490814,14.55340481,8.682857513
887,-1.116099477,4.352384567,-9.699492455,-186.1465912,6.388545513,10.05217266
888,-0.916249096,5.449344635,-7.804357529,-175.6168671,12.40112686,11.94837379
889,0.629306436,6.2941432,-7.019757748,-169.4255676,16.96072388,12.85484314
890,0.320337057,6.507797718,-7.090558052,-158.664566,9.827515602,6.498271942
891,0.194802791,5.638638496,-7.778280735,-136.0738068,-7.082707405,1.694768667
892,1.303855658,4.596331596,-7.83491087,-102.9231567,-17.89927673,0.999401093
893,2.895526648,4.590002537,-7.216822624,-73.5511322,-8.785147667,-1.49966538
894,3.104475021,4.428742409,-5.957770824,-52.91921997,15.5202713,-10.25545025
895,2.299668312,4.362622738,-5.418774605,-12.17493439,26.96264458,-30.96710777
896,2.118472338,4.406643391,-6.204008579,49.80360031,25.11142349,-46.82564545
897,1.338190913,5.430875301,-6.869049549,90.9884491,23.09841347,-49.05489731
898,0.830993831,7.114961624,-8.024372101,118.0561218,12.83999157,-46.20640564
899,1.320766687,6.573933601,-9.847019196,136.2207031,-4.44262743,-44.9864502
900,1.913314462,5.69951582,-10.92450237,153.0111694,-10.06488323,-46.77094269
901,2.595944643,5.763589382,-10.36896896,159.6210938,-4.998127937,-47.25640488
902,2.725859642,6.209346294,-9.96613884,141.4450073,11.83431435,-47.58239746
903,2.174742699,7.013151169,-9.706748009,116.8556213,20.22318649,-49.00228882
904,1.403064847,7.172898769,-9.989028931,83.91397095,21.8366642,-49.72910309
905,0.882536292,7.119996548,-10.09681225,65.32038879,16.42423058,-48.38238525
906,0.536067903,6.782659054,-9.94387722,49.18421173,17.64565468,-44.63596344
907,0.357628047,6.025112629,-9.777299881,48.67513657,16.70235443,-40.78943634
908,0.987542152,4.704963684,-9.786686897,59.56801987,13.42744541,-39.95444107
909,1.636734605,3.839773417,-9.26181221,67.88924408,17.50008202,-37.88197708
910,1.427232742,4.086827278,-8.937994003,68.74694824,22.56706238,-34.79655457
911,1.120543122,4.65208292,-8.650764465,74.59835815,21.13409615,-30.08430672
912,1.66236937,3.675262451,-8.437898636,73.82308197,21.16652298,-21.63427925
913,1.389554501,2.909209967,-8.833061218,72.12785339,22.78953171,-17.64229774
914,1.528076649,3.502776384,-9.655531883,78.77446747,19.13077736,-13.17534351
915,1.926199794,3.811848164,-8.958154678,66.43614197,22.59340858,-1.466608405
916,2.232758045,3.711069584,-8.068015099,61.17726898,36.04350662,7.137945175
917,2.991931677,3.801436424,-6.940134048,41.8239212,37.27799988,11.82400036
918,3.340576887,3.53687048,-7.402905941,8.469625473,22.4256916,15.44641685
919,2.671544552,2.878636837,-8.187376022,-12.75436115,10.18697262,13.08711529
920,2.609643698,3.474375725,-8.061613083,-22.49366188,8.433584213,8.382638931
921,2.205485106,4.046399593,-8.609788895,-36.67041397,8.044358253,10.65128326
922,3.71916914,3.54536438,-9.322838783,-50.21875763,-4.913865089,-1.644477844
923,2.740844965,2.644078493,-9.476930618,-49.32479858,-20.8037796,-13.35204315
924,2.072158813,3.164947271,-10.2067318,-34.81469345,-27.97730446,-18.67972755
925,1.134690523,2.863356829,-10.69941616,-21.60853386,-19.48021317,-10.52489567
926,1.331655502,1.441190958,-10.38965607,-25.14116096,-4.127687931,1.241597533
927,2.14394784,0.132196397,-9.549591064,-26.99736786,-1.969480991,8.26934433
928,1.269119024,0.432189584,-8.574186325,-20.96293068,-4.563696861,19.58160019
929,0.716955185,0.730643034,-8.298603058,-26.31554794,-17.39686775,18.97451973
930,0.859200597,0.290196985,-7.863537312,-25.17401123,-36.94276047,10.40768909
931,1.238175988,0.050728112,-8.050962448,-11.37046909,-56.23913956,-6.491153717
932,0.807513833,0.396682262,-9.579933167,21.14387703,-53.39674377,-21.74526405
933,0.129889309,0.888411462,-10.63352299,47.65538406,-29.7342205,-33.98638916
934,0.002155464,0.642534375,-10.39278412,52.29406357,-13.98095226,-39.64680862
935,-0.184603021,-0.617374241,-10.60299301,60.42449951,13.52098656,-38.65325165
936,0.854514241,-1.15418601,-11.04272556,83.53562927,29.24061012,-42.28657532
937,1.400933743,-0.693323731,-10.64790154,122.4098053,36.63290787,-41.97710037
938,0.607921183,-0.981734276,-10.1345768,151.4771271,41.72707367,-39.68397141
939,0.679177523,-1.152151942,-10.14597034,191.5223999,41.05368042,-44.79465485
940,1.09000349,-0.155857325,-8.434370995,222.0818481,56.34580231,-41.72039032
941,0.541505754,0.753424704,-9.13828373,200.6023102,52.20767975,-36.52118683
942,-0.071917251,1.620659351,-10.80163193,169.9897003,30.26137543,-43.80076218
943,1.679788113,-0.522314787,-12.60773373,158.7332611,13.00860882,-46.92286682
944,3.520312548,-1.066939831,-12.95616627,164.4158936,-7.8909688,-47.83269119
945,4.029866695,-0.028631747,-12.63553333,168.1431885,-20.65670204,-47.93303299
946,2.540339231,0.697950363,-12.3927002,171.9233551,-34.85100174,-42.01839447
947,1.29509306,0.835334897,-11.9582634,188.4123993,-41.92668152,-31.0804863
948,1.031266689,-0.408223033,-11.38532829,182.0070648,-39.91543579,-15.43182945
949,1.094036222,-1.777319431,-10.40665722,162.7916107,-35.80070496,-2.683122635
950,0.36395973,-3.156660557,-9.419141769,143.4318085,-36.94639206,3.212388277
951,-0.039309192,-3.937904596,-9.107400894,116.9904022,-40.24440002,4.265026093
952,0.108943284,-4.249669552,-7.659787178,100.2962494,-32.06985855,0.225195631
953,0.377463609,-3.845774412,-7.007126808,85.0883255,-29.89229202,0.56758076
954,0.673617721,-2.679185629,-8.808674812,52.13156128,-38.79247665,10.47691917
955,0.35015595,-2.121588707,-8.701415062,30.45438957,-38.87185287,11.16705894
956,0.34725824,-2.405148029,-8.03821373,9.477355003,-25.42918968,12.29362011
957,1.503658891,-2.170533419,-8.45743084,-16.98665047,-21.45196152,19.56756783
958,1.276906252,-2.002576828,-8.413054466,-46.39156723,-10.91958427,23.67199898
959,0.340301067,-2.596120358,-8.120961189,-72.21709442,-0.159282297,26.59545135
960,0.583193958,-2.597920656,-8.696015358,-87.71530151,5.184152126,26.88551521
961,0.763295174,-2.889738798,-9.344524384,-97.97903442,2.974033117,31.04836273
962,0.721565902,-2.2353549,-10.61053467,-99.76872253,-7.978718758,29.11380196
963,0.483613551,-1.02399683,-11.06390476,-96.76332092,-12.58544922,25.10569763
964,0.429361761,-1.293979049,-10.97099686,-94.08598328,-30.14260101,27.79184914
965,-0.320628434,-2.159687281,-10.69547939,-80.16699982,-51.82182693,30.91609764
966,-1.142264605,-2.91417551,-10.87045097,-68.07748413,-65.438591,23.00346947
967,-1.504461765,-3.279811621,-11.62092113,-56.18224716,-69.80028534,16.35554504
968,-1.533309221,-2.94983387,-11.9621067,-29.13298416,-56.14310074,7.085354328
969,-1.646085501,-1.548294902,-11.3569231,-17.53582191,-31.44839478,-1.100550652
970,-1.824784398,-0.231136799,-10.12234402,-27.64163017,-9.036462784,-1.763906956
971,-2.03643322,0.165203825,-9.382804871,-50.90332031,8.179121971,1.066945553
972,-1.456749916,-0.637220502,-9.245913506,-74.35570526,24.57948875,4.214583874
973,-1.485650301,-2.017302036,-7.824896336,-95.21845245,30.42110634,3.657193184
974,-1.829976559,-1.667559862,-8.421627998,-103.0345688,12.96793652,-6.965633392
975,-1.355537057,-0.522719502,-10.16450405,-91.85677338,10.33654499,-16.84392738
976,-1.622790933,-0.163887098,-11.153409,-80.08197784,7.361270428,-22.7555275
977,-1.696454406,-0.446223497,-11.81496048,-67.79613495,3.575989246,-24.61940575
978,-1.150718927,-0.500130951,-10.5411396,-55.87851334,-0.340877086,-16.79103279
979,-0.198155835,-0.269898355,-9.246979713,-52.35279846,-5.665812016,-11.86542892
980,0.136925921,0.067234553,-9.652080536,-35.95468903,-13.70438957,-11.04404736
981,-0.59709096,0.414537936,-11.13249207,-8.642913818,-26.6171875,-15.59865665
982,-0.695394039,0.540981829,-11.51198864,12.78600693,-28.08771133,-17.81822777
983,-0.489509165,-0.635710955,-10.6746273,23.43012619,-20.83307076,-11.43341827
984,0.151578039,-1.020698428,-9.721366882,38.89111328,-14.45539188,-6.427656174
985,-0.069509238,-0.761153162,-8.93568325,52.20658875,-15.01500797,-3.467438698
986,-0.876847088,0.184093177,-8.277521133,47.01876068,-17.81662369,-1.933353543
987,-1.038720131,1.324879408,-7.814655304,34.10648727,-22.03525925,3.708337307
988,-1.012335062,2.028059959,-7.689722538,16.34640121,-31.39770317,8.911359787
989,-1.241553426,1.218473673,-8.318909645,-2.325488329,-40.01072311,15.59949112
990,-1.54653728,-0.379246205,-9.052459717,-5.17406702,-42.24411774,18.37585449
991,-2.035144567,-1.138742924,-9.462739944,2.36174655,-34.22159576,17.70494652
992,-1.689968348,-0.550272346,-9.64557457,2.236274958,-18.0035038,16.27748108
993,-1.153444886,0.906364799,-9.066645622,-3.211253166,-1.777055621,15.93267632
994,-1.804008603,1.817123413,-9.696895599,-10.44427299,2.319119692,22.08740044
995,-2.016061783,2.462849617,-9.643801689,-40.75371933,5.77072382,31.5585556
996,-1.665267706,2.534119129,-8.672261238,-69.8156662,19.5128746,39.78984451
997,-1.010601997,2.585301399,-8.760808945,-88.00057983,20.81591606,52.59792709
998,-1.130445838,2.459246874,-9.080669403,-114.8988647,15.97126007,58.35151672
999,-2.359017134,2.181821108,-9.653082848,-144.8217621,19.68844414,62.62814331
1000,-1.665697336,3.033970594,-11.03416824,-144.2794647,18.99289703,64.29190826
1001,-1.26126492,3.475563765,-11.49347496,-141.8601532,20.70267296,63.98425674
1002,-1.486064792,3.623829842,-11.72971916,-150.8236542,17.997118,62.76605225
1003,-1.254151821,4.084420204,-11.6882906,-152.6391144,15.82326889,61.02360153
1004,-1.127611995,4.751114845,-11.32988548,-154.1327362,8.740297318,58.87414932
1005,-1.558513522,4.86038065,-10.86107445,-164.2544098,5.329730511,59.09957123
1006,-2.007841349,5.190911293,-10.6084795,-174.758194,2.439889431,58.97806931
1007,-1.721921206,4.779445648,-10.19069195,-176.1955414,0.345294118,54.04774094
1008,-1.460087419,4.412508488,-9.133366585,-164.6292419,-0.003938358,46.57764053
1009,-1.323189735,4.666230679,-7.985814095,-142.2791901,-2.017812967,36.17646408
1010,-1.304461837,5.321436405,-7.678248882,-116.4887009,-10.0608263,26.68655777
1011,-1.1728971,5.727882862,-7.576263428,-98.34204865,-17.06011009,25.25310516
1012,-1.263532758,6.41754055,-7.105450153,-86.68222046,-16.84003067,27.45914078
1013,-1.089189887,6.707958221,-6.756214142,-80.88427734,-13.7958765,30.15489578
1014,-0.989523053,6.45680666,-7.161458492,-75.94081879,-9.572350502,28.67347527
1015,-0.554089546,6.340148926,-7.421195507,-69.05355835,-8.41848278,23.22154045
1016,0.608492732,6.550456524,-7.016144753,-61.43660355,-5.901279926,11.48813438
1017,0.916085601,6.087494373,-6.655270576,-41.1176796,-5.774847031,-2.388763666
1018,0.731744468,4.599306107,-6.174779892,-7.721510887,-9.591866493,-8.490340233
1019,0.570794344,3.859018564,-5.927201748,33.18738937,-8.775765419,-13.74402523
1020,0.694270253,4.007749081,-6.675508976,80.14250946,-10.40528011,-21.07903481
1021,-0.404690623,4.610012531,-7.125250816,108.732666,-15.42646408,-27.56187248
1022,-0.340611041,6.100727558,-8.281934738,125.2708893,-15.31161785,-29.00264359
1023,0.195246145,7.014450073,-8.786615372,130.6919861,-20.65700722,-25.14767647
1024,0.129499659,6.939380646,-8.555922508,122.7737885,-21.46527672,-26.31775475
1025,-0.262103647,6.114696503,-8.066470146,113.4268723,-17.48758698,-33.38673019
1026,-1.085650444,5.159074783,-7.806409836,99.27618408,-14.40216637,-41.48659515
1027,-1.627360702,4.672492504,-8.527993202,88.6697464,-14.58816051,-44.48806381
1028,-1.400158286,4.327709675,-9.31883049,89.23047638,-5.535776615,-39.83572006
1029,-1.268448472,4.394537926,-9.365200996,93.35225677,9.188385963,-31.45043564
1030,-1.214498997,3.943502188,-9.794941902,96.26344299,10.60365868,-24.43067932
1031,-1.197444439,3.28210187,-10.27312565,99.16049957,7.948121548,-26.01818657
1032,-1.287296414,3.137065172,-10.04066086,96.89562988,5.369587898,-27.71745491
1033,-1.352630734,3.371741056,-9.710531235,91.31624603,4.669306755,-27.59022903
1034,-1.155644894,3.260602236,-9.888558388,80.60103607,3.12878418,-23.38792801
1035,-1.403808475,2.830017328,-10.17756271,68.99635315,8.330838203,-19.62143898
1036,-1.498285532,2.180516005,-9.854733467,62.89820099,18.03795052,-19.6743412
1037,-0.874174774,3.034454346,-9.027084351,65.47860718,30.74877167,-20.88802719
1038,-0.588172734,3.176342249,-9.179659843,65.94979095,29.786726,-17.21185684
1039,-1.257050514,2.368998528,-9.713083267,68.07135773,28.79033279,-16.74414825
1040,-1.440754771,1.451741457,-9.498394966,70.58718872,34.60842514,-18.10082245
1041,-1.139542103,1.230152369,-9.217787743,73.66677856,44.14396667,-19.84200287
1042,-0.230880842,2.294344664,-9.344255447,71.13847351,42.4234314,-20.9972496
1043,0.142499164,2.99601984,-9.685807228,57.00193024,33.2881012,-16.55012894
1044,-0.558647454,2.327894688,-10.48907661,34.68366623,27.454216,-8.921100616
1045,-1.068399429,0.577319443,-10.72676945,24.3832531,29.55644226,-6.799176216
1046,-0.911355257,-0.579248846,-10.83819389,28.71957588,32.81844711,-9.12707901
1047,-0.559990168,-0.885813594,-10.92984867,34.89422607,29.62658882,-7.712433815
1048,-0.654520094,-0.051456969,-10.71691418,35.0902977,22.98468781,-6.47580862
1049,-1.180363894,0.976775408,-10.43882942,32.08597946,16.5623455,-4.354128361
1050,-0.661317348,1.148241878,-9.856835365,28.42425346,5.706380367,-7.25917387
1051,-0.589506686,1.038006783,-9.268825531,27.64561272,-4.127191544,-4.306006908
1052,-0.674230516,0.494246393,-9.172675133,20.93340683,-11.43222141,-6.258123875
1053,-0.626953244,0.28069663,-9.163412094,8.729920387,-14.71887493,-9.240196228
1054,-0.772121072,0.314635396,-9.54161644,-9.882590294,-12.56183529,-11.69689465
1055,-0.367864072,0.091732919,-9.639371872,-15.75527477,-8.3887043,-13.348382
1056,-0.281053662,-0.55863744,-9.974597931,12.38711262,6.612529278,-14.29566574
1057,-0.897600353,-1.194591045,-9.434815407,50.79490662,29.85185432,-11.04856873
1058,-0.912964523,-2.061496496,-9.898346901,50.31723404,27.04815865,-12.82673264
1059,-1.182693124,-2.052508116,-10.01711082,48.79371643,19.90523338,-13.93618965
1060,-1.46729064,-1.187801838,-9.45482254,57.98635864,26.39762688,-18.96041107
1061,-1.581098914,-0.183258116,-8.997093201,51.17403412,29.60367966,-24.96212387
1062,-0.963408411,-0.079636775,-9.494441986,32.96911621,25.65570259,-28.92978287
1063,-0.230336979,-0.824937284,-10.26588345,37.02865219,17.82934761,-28.07634926
1064,0.783448935,-1.508236408,-9.660264969,63.89036942,21.117733,-27.86458397
1065,1.38063395,-2.710552931,-9.232302666,89.61867523,22.38739014,-31.48329926
1066,0.532272279,-3.918196201,-10.00857544,121.3086395,24.99822235,-45.65191269
1067,-0.463688135,-4.311076641,-10.15576077,159.6141357,30.58940887,-54.22752762
1068,-0.150789157,-3.730455399,-10.65408707,156.4349823,27.36499023,-50.06239319
1069,1.502716064,-3.006933451,-11.0865221,140.0600433,16.57829666,-43.44471741
1070,2.642026901,-2.584637165,-11.83494186,119.1253204,-1.18733716,-42.407547
1071,2.496277094,-2.669132471,-12.08067608,121.2171173,-11.19530869,-42.80071259
1072,1.263590693,-2.243724346,-10.91564178,141.317688,-14.76780796,-39.67145538
1073,0.128202736,-1.737179995,-9.562139511,144.9718933,-16.68003082,-25.80295563
1074,0.625850797,-2.259687901,-9.144673347,125.1897354,-28.65915298,-8.660101891
1075,0.376019806,-3.783206224,-9.524090767,108.3982925,-43.53962708,-0.822328866
1076,-0.575384796,-4.749282837,-9.016216278,95.03845978,-39.74833679,-4.113707066
1077,-0.319300592,-4.09070158,-7.570587635,75.02358246,-27.31717491,-11.64331532
1078,0.143070251,-3.287210226,-6.79985857,42.15270233,-16.66154861,-12.32342815
1079,0.083271354,-2.525841236,-7.633026123,4.225007534,-20.14484406,-6.618972301
1080,0.220761329,-2.206327438,-8.734975815,-21.22873306,-27.11008644,-3.651790619
1081,0.009201376,-3.361390591,-9.32820034,-22.1892662,-0.428449929,-3.134538651
1082,0.804879963,-4.285456657,-9.317790985,-23.95136833,31.89952087,-1.558163524
1083,1.203782082,-3.059925079,-9.196105957,-41.37247849,51.5429039,0.071735859
1084,1.180308819,-3.014674187,-8.353448868,-60.69007874,46.60940933,7.936293125
1085,0.81019628,-4.195748329,-9.403217316,-70.20532227,33.3253746,15.63412189
1086,0.484467059,-3.723915339,-10.21513653,-68.74595642,17.61936188,19.2072525
1087,0.490090162,-3.786373377,-10.09408379,-73.59236908,6.341378689,18.38598442
1088,0.548325539,-4.345979214,-9.842972755,-80.94683838,-3.783304691,17.07422829
1089,0.280039132,-3.944409609,-9.695098877,-83.56047058,-15.24816704,14.07322502
1090,-0.148912728,-2.737216473,-9.925039291,-80.59148407,-20.18042755,11.35698891
1091,-0.47047618,-2.010622025,-9.978830338,-75.69580841,-20.41111946,11.82688999
1092,-0.168523207,-2.158747911,-9.68001461,-67.55560303,-11.81266785,10.61632252
1093,-0.373106092,-2.580923319,-9.237413406,-57.18515778,-7.90914917,8.00989151
1094,-0.745901942,-2.054296017,-9.375347137,-48.19672012,-12.22518539,5.89811945
1095,-0.661321223,-1.487046599,-9.909444809,-41.76636505,-14.22963142,2.794512272
1096,-0.609821737,-1.118860006,-10.29580593,-37.6517868,-12.74885559,-2.098613739
1097,-0.689289927,-0.759343445,-10.40864182,-39.23407745,-4.486428738,-4.471893311
1098,-0.676918626,-0.977209926,-10.19114208,-47.16901016,4.399271965,-0.230548128
1099,-0.624275148,-1.647856832,-10.16335201,-57.50188828,5.316862106,5.865287781
1100,-0.496815383,-2.065409899,-10.79674053,-66.68018341,-0.49536413,13.0788908
1101,-0.4824619,-2.641485214,-11.88234806,-72.93709564,-9.035643578,17.29431152
1102,-0.614837348,-2.484410048,-11.91039944,-74.81513977,-14.79332924,12.70802212
1103,-0.088977993,-1.61857295,-10.89887142,-70.53229523,-1.774459958,5.109067917
1104,0.086977758,-1.4573102,-9.505904198,-66.99899292,8.784350395,-5.154428482
1105,0.242126912,-1.041231513,-9.091275215,-58.88518524,3.520611048,-2.633510828
1106,-0.17053698,0.084829949,-9.363288879,-45.42971039,-7.953578472,2.852546453
1107,-0.028781274,0.63773942,-10.24561691,-36.82746124,-18.05146408,12.18830395
1108,-0.622071147,0.639811397,-10.92226219,-31.03384209,-22.88492012,13.80523682
1109,-0.721918106,0.622560382,-10.83575249,-26.65127754,-20.30265236,14.19874001
1110,-0.726666093,0.235319436,-10.40226078,-22.61771011,-16.96052361,18.0153389
1111,-0.59697628,-0.223957479,-9.777773857,-16.05287743,-11.42534065,21.31210709
1112,-1.448121786,-1.025147557,-9.598790169,-7.584649563,-11.51177692,22.00049019
1113,-0.683705449,-1.552118301,-9.994235992,11.4918499,-12.67574215,19.45497322
1114,-0.246944025,-0.901114821,-9.54047966,27.88325119,-12.90056133,14.97660065
1115,-0.058647752,0.022625461,-9.288259506,31.86918831,-11.06101036,12.52849007
1116,-0.39423281,0.64936918,-9.669552803,34.65776825,-14.82397652,8.544266701
1117,-1.17556262,1.11094141,-9.879025459,36.22151947,-23.71596146,6.99737215
1118,-1.085101008,1.878925443,-9.478989601,21.03713226,-20.29119301,20.13109398
1119,-1.141052008,3.192477465,-9.000981331,-7.557619095,-8.06486702,30.17668152
1120,-1.984899879,3.967579126,-9.599297523,-40.01898575,-6.726665974,41.49822235
1121,-1.306506991,3.609418392,-9.944807053,-85.8358078,-11.57605553,50.46994781
1122,-0.943170249,2.474401236,-9.910007477,-127.1901169,-1.115386605,54.42740631
1123,-0.314063221,2.468167782,-8.861680984,-146.2912292,6.890153408,59.42560577
1124,-0.898213804,2.278744936,-9.428884506,-160.610321,19.88696671,63.48744202
1125,-0.867823303,2.583229065,-10.180933,-155.8587036,21.82429504,65.18599701
1126,-0.355100036,3.948255301,-10.40907097,-166.1942139,18.82147598,63.58940506
1127,-0.58914566,4.589153767,-10.92956066,-182.8825226,15.38574409,59.03378296
1128,-0.592509031,4.124904633,-11.20347786,-195.7228394,4.373881817,57.56463623
1129,-0.703329444,3.444607496,-11.33000374,-199.2540436,-5.358921051,58.79247284
1130,-0.613597631,3.424494267,-10.77878475,-190.1164856,-20.67398643,59.1758461
1131,-0.270495236,4.086924076,-10.30922222,-173.1896667,-24.5590229,50.49182129
1132,0.444984615,4.944210529,-9.548958778,-156.9986115,-20.84918404,36.02342987
1133,0.524568856,5.186332226,-9.395944595,-143.5884399,-17.09690285,27.05316162
1134,-0.452322006,5.157977104,-9.256279945,-121.3780518,-6.805539608,23.21014786
1135,-0.726921856,5.354343414,-8.686015129,-86.76638031,14.67570686,21.36599922
1136,-0.41019994,6.172216892,-7.750809669,-56.72315598,33.84482956,17.89922905
1137,0.556006253,6.025238037,-7.618627071,-42.74560165,46.77514648,12.61219883
1138,0.962893069,5.680247307,-6.70403862,-16.62483215,53.59280777,1.276448965
1139,2.279215097,4.83269453,-5.820734024,25.44311714,52.54610825,-11.0872345
1140,2.694125891,2.971840382,-5.699251175,65.98111725,42.10811615,-15.85301781
1141,0.929644167,2.061888933,-6.523431301,111.7127457,31.27105904,-23.64085579
1142,0.044690825,2.192826033,-7.872419834,149.4748688,17.78087807,-31.90158653
1143,-0.168797567,4.032438278,-8.660185814,177.7550201,8.37338829,-36.55766296
1144,1.114036918,4.633956909,-8.940718651,181.0960541,-12.71978855,-37.08989334
1145,1.663437843,4.696696758,-10.9155817,176.9393463,-33.35573578,-39.95672607
1146,0.99936384,4.211444378,-11.38813972,160.3033142,-46.19246674,-44.25577927
1147,-0.130251288,3.415944338,-11.10484791,139.7054596,-45.47200775,-52.25892258
1148,-0.864218056,3.23672843,-10.77053356,131.7393951,-36.42762375,-58.86175919
1149,-0.98139286,2.396473169,-10.53772926,120.0732803,-23.88904572,-59.18077469
1150,-1.270201087,1.912341118,-10.30976677,114.509201,-11.28153419,-54.93762207
1151,-0.749340355,2.212516069,-9.624997139,117.2605286,-2.402547121,-44.69334412
1152,-0.76334554,2.604376793,-8.966508865,110.6414795,2.30616045,-32.3164444
1153,-0.468931764,2.505117893,-8.938593864,96.09017944,2.419816256,-20.54634094
1154,-0.592722118,2.571302652,-9.432453156,76.67996979,0.543532312,-13.56469822
1155,-0.548714638,2.992008686,-9.895853996,60.47849274,-3.689744711,-10.76544952
1156,-0.382365674,2.320067883,-10.01857758,37.90336227,-4.4097929,-4.088966846
1157,0.084430128,1.169982076,-10.23512268,18.58801651,0.250543743,2.91387105
1158,-0.340096354,0.391720086,-10.51726151,15.60509396,4.292321682,9.082644463
1159,-1.334956884,-0.005575039,-10.87471008,12.03483105,5.651601791,10.09811211
1160,-1.182797432,-0.973392963,-11.00400066,11.27025509,14.86814022,5.868837357
1161,0.001459319,-1.187117934,-10.53824902,35.75629807,22.88378525,-2.1424582
1162,0.581547379,-0.478553921,-10.67212391,14.76128864,23.6578064,-2.196787834
1163,-0.163968951,0.283747345,-10.35994339,-5.638717175,22.21475792,3.790673971
1164,-1.186947346,0.188430458,-10.26961613,-17.59080315,20.6892128,7.791954994
1165,-1.286266446,0.401420057,-9.886015892,-29.01305199,22.81530571,7.992495537
1166,-0.715579033,0.279355943,-9.690529823,-40.27759552,19.40518188,9.816049576
1167,-0.467638642,0.098383129,-9.435479164,-40.69815063,16.46418762,5.199913502
1168,0.154781252,0.367553234,-9.630460739,-33.8446312,12.333148,-1.80072844
1169,0.670033693,0.560043812,-9.901136398,-28.90912056,10.35551929,-1.071453214
1170,0.424159497,1.351036787,-9.815701485,-30.01795769,11.61821938,3.685181618
1171,0.581881344,2.032097101,-9.704533577,-38.37031937,11.87360573,6.401484013
1172,0.745095074,1.656815886,-9.515782356,-40.72514725,6.325030327,5.228339195
1173,0.78003943,1.258162141,-9.10690403,-36.06244278,-3.076169968,4.718316078
1174,0.622017264,0.933725059,-9.14657402,-32.33466339,-12.4516716,0.694222331
1175,0.181952134,0.653460324,-9.20430851,-28.29727745,-21.81071472,-5.741158009
1176,-0.18158707,0.194501877,-9.683506966,-26.05330849,-27.60623932,-12.65931416
1177,-0.5892694,-0.377694637,-10.34462643,-16.4622345,-31.4279747,-19.57404137
1178,-0.864898026,-0.321295351,-10.7940979,7.277714252,-24.52250862,-24.93316078
1179,-1.20533812,-0.121552214,-9.828322411,42.02833939,-2.457516193,-28.52466965
1180,-0.397147804,-0.934907675,-9.518755913,107.6593704,54.98894501,-39.55430603
1181,-1.051841497,-2.356410027,-10.71643257,161.7329254,85.13065338,-43.79232025
1182,-1.404722095,-2.111613035,-12.60302925,165.5413971,67.43228149,-47.26623154
1183,-1.109488964,-1.001343727,-11.99055386,163.7110443,49.86703873,-51.13676071
1184,0.723495066,-1.816868544,-8.901892662,180.9726563,62.37121964,-53.02043533
1185,0.53986603,-3.337262154,-8.740475655,206.4719086,61.34431839,-54.03106308
1186,-0.646654785,-3.506598234,-11.04168129,224.3655701,37.00062943,-62.76641464
1187,-0.324563414,-2.868705273,-12.73296165,233.6586761,16.44956207,-65.24619293
1188,1.08314085,-1.152529836,-13.66178226,219.1062164,-6.118672371,-53.91944504
1189,2.669360161,-1.391324043,-12.65750694,186.7098694,-18.63429642,-43.03168488
1190,3.042771816,-2.966427088,-10.96352386,162.1437073,-34.31809998,-38.08542252
1191,2.070212841,-2.917308569,-10.3143177,166.3416595,-55.2264595,-33.79734039
1192,0.954508483,-2.162454367,-9.945167542,170.524765,-54.50048065,-24.76231766
1193,0.336654872,-2.191746712,-9.028917313,159.959671,-39.47033691,-16.81077003
1194,0.383648783,-2.594830513,-8.278678894,128.6000214,-28.08155441,-9.922276497
1195,1.254123211,-4.72420311,-7.296985626,93.70461273,-17.74625397,-9.573696136
1196,1.108620763,-5.586604595,-6.794680119,70.57759094,-20.76464272,-12.47847748
1197,0.500659227,-5.302442074,-6.19570446,55.79832458,-17.17090797,-9.645561218
1198,0.16391781,-5.481926441,-7.066427231,36.8026123,-13.68768692,-7.108516693
1199,0.594515979,-5.351534367,-7.592851639,14.01609135,-10.83367825,-4.047842026
1200,1.561187983,-4.267471313,-7.626017094,-9.267324448,-2.682463884,3.861704588
1201,1.663298488,-3.303017139,-6.83620882,-26.35007286,4.291807652,17.96221161
1202,0.753442466,-4.722195625,-6.193263531,-35.77165985,14.46027088,27.31533432
1203,-0.117909953,-6.209471226,-6.664518833,-42.02504349,16.26145554,28.31364059
1204,0.055945028,-6.525465965,-7.367402077,-48.98072815,16.65735817,26.45433235
1205,0.534000635,-6.096103191,-7.632621288,-58.80101776,10.57937717,25.12167549
1206,0.998292506,-5.571454525,-8.497548103,-62.55607224,0.338797241,22.59107399
1207,1.58782506,-4.710197449,-9.318358421,-57.95138168,-3.761920452,18.66378212
1208,1.594916344,-4.584216118,-9.819558144,-49.10496902,-1.246716619,18.1368866
1209,0.706657052,-4.700654984,-9.706607819,-43.60411072,-4.529833317,16.51539612
1210,0.698621333,-4.263772011,-9.690005302,-41.229496,-9.175692558,14.59318066
1211,0.589787424,-4.715201378,-9.458015442,-37.61071396,-15.50475121,12.2969408
1212,-0.111351982,-4.602396965,-9.384417534,-32.07673264,-23.02022552,8.018069267
1213,-0.435566753,-3.804485321,-9.3402071,-21.94416618,-22.81223869,3.52244401
1214,-0.586507022,-3.126682281,-9.363996506,-17.00862694,-16.38844109,-1.324621081
1215,-0.640734434,-3.027117968,-9.493762016,-22.31438065,-10.73450565,-4.730311394
1216,-0.768642962,-3.136270046,-9.514356613,-31.33088684,-3.352650642,-7.876407623
1217,-0.70922935,-3.054704189,-9.571294785,-36.88686752,5.795820236,-11.91969013
1218,-1.079924703,-3.264358521,-9.520275116,-43.50042343,12.54181957,-14.33173275
1219,-1.288772464,-3.188370466,-9.654836655,-42.09682465,10.06043053,-11.963027
1220,-0.404558986,-2.109902143,-9.706560135,-39.35666656,12.45366287,-2.81429553
1221,0.196541101,-2.428914547,-9.463112831,-43.7730217,23.24206352,10.5952816
1222,0.22922872,-4.425271511,-9.503333092,-49.33956146,33.81926727,16.04611206
1223,0.236228824,-6.153644562,-9.342600822,-53.36913681,31.89355087,10.03226948
1224,0.374389946,-5.40436554,-9.435009956,-36.14322662,20.31919098,2.402268171
1225,0.125849798,-4.742088795,-9.281430244,-13.58990669,8.766359329,0.598767877
1226,-0.01404545,-3.717632294,-9.779448509,9.559811592,-7.333227634,-0.019862661
1227,-0.150471494,-3.058521032,-10.15504742,26.60527039,-22.31823158,1.335701585
1228,0.187032863,-2.30884099,-10.25941849,29.78886604,-34.96166992,4.038384438
1229,0.147602275,-1.655911207,-10.23926163,23.73763275,-41.27488708,6.316411972
1230,-0.405315578,-1.335069537,-9.198451996,9.369399071,-43.64304352,7.778851986
1231,0.103635944,-1.275180578,-8.14685154,-6.507406235,-48.2873764,12.25846195
1232,0.138622016,-1.427342415,-8.322519302,-15.74046612,-54.39529419,20.35222435
1233,-1.023490667,-1.45693326,-8.678761482,-19.24494362,-59.70351791,31.23726654
1234,-1.702774644,-2.111564159,-8.237999916,-29.40576363,-63.03806305,39.97776794
1235,-1.697893262,-3.016680717,-8.950453758,-27.70813942,-68.6359787,43.38047791
1236,-1.327403307,-3.45451498,-9.092418671,-30.58994484,-61.42329788,43.64852905
1237,-0.835945129,-2.988915205,-9.360477448,-35.86068726,-48.14891434,38.74594879
1238,-1.076856494,-2.28919816,-8.960553169,-33.80302048,-26.72570801,32.09309387
1239,-2.033740044,-1.346107125,-8.620693207,-37.75376129,-4.241274357,30.88594437
1240,-2.823821783,-0.409310132,-8.157570839,-48.75341415,16.25738525,38.36356735
1241,-2.604289532,1.092504978,-9.177979469,-76.45362091,27.68103218,48.63032532
1242,-2.4579916,2.451319933,-9.889177322,-111.3219528,37.39713669,56.09005356
1243,-1.565351009,3.307970524,-10.1997776,-149.2997589,47.17783737,66.15771484
1244,-1.070012569,2.64603138,-10.32702732,-168.4634247,45.75608063,66.58405304
1245,-1.436030746,1.020978451,-10.65720844,-176.3913879,41.81967163,68.43413544
1246,-1.773823977,0.491869211,-11.39480209,-180.9619293,43.20777893,70.92451477
1247,-1.330771685,1.225196362,-11.77672958,-188.5608673,40.37661743,72.22885895
1248,-0.275760353,1.930244327,-12.84263992,-195.2055969,36.57579041,73.1860733
1249,0.170732141,2.350142956,-12.62694359,-202.7268677,31.05281067,69.80197144
1250,-0.581880987,1.649514437,-12.31524563,-220.9862823,31.00998497,66.47928619
1251,-1.583891511,1.285072088,-11.84014225,-223.9425964,28.18128395,62.11807251
1252,-1.999464035,1.826872826,-10.95300007,-220.4656525,14.88355064,51.69841385
1253,-1.29238534,2.766507149,-11.29575634,-202.758728,8.503439903,37.9912529
1254,-0.738777637,3.366527796,-10.45919514,-180.1642456,7.292057037,25.19749832
1255,-0.79899466,3.87904501,-9.584170341,-158.6986389,7.931827068,17.56359482
1256,-0.705309987,4.12802124,-9.564353943,-134.6346893,9.203084946,12.60010052
1257,-0.825004458,4.164530754,-9.081411362,-108.1101303,10.7283392,7.667507172
1258,-1.166822553,5.078865051,-8.915793419,-76.4489212,7.954931259,0.773698807
1259,-0.65677768,5.725884438,-8.682467461,-52.34460449,4.905969143,-5.946053505
1260,0.490327895,5.970490932,-7.677172661,-36.93412781,6.438019276,-14.99987602
1261,1.411991835,5.168949127,-6.564129829,-22.6098423,8.26924324,-22.12016296
1262,0.590183973,3.55734396,-5.742510796,0.78695327,13.33094883,-30.01713181
1263,-0.384352356,3.304594517,-6.710454941,49.15330505,16.887043,-40.13928223
1264,-0.131364629,4.233141422,-7.647592545,94.93647766,6.343836784,-46.30864716
1265,-0.259132564,5.317536831,-8.19022274,117.6561432,-8.512535095,-46.43438339
1266,-0.134873062,5.509482861,-9.566802025,119.958931,-18.5585041,-40.48344803
1267,0.142242327,4.357347012,-10.61493111,117.4024048,-12.40517044,-31.4780159
1268,0.606432378,4.459694386,-10.06548595,113.7792358,-3.918425798,-26.3891468
1269,0.523393929,5.360889912,-9.166938782,111.5698471,-3.806003809,-22.48624992
1270,0.152391121,5.958174706,-8.538628578,100.2490997,-12.13066101,-20.68823624
1271,0.062692419,5.183474541,-9.237312317,87.19146729,-22.00580597,-17.38424301
1272,-0.363130867,5.003225327,-9.684246063,70.55841827,-22.43747139,-9.907417297
1273,-0.712239265,4.044305325,-10.4003973,51.94993973,-17.31682014,0.48443085
1274,-0.968647301,3.003232002,-10.24501228,43.48841095,-11.19452763,5.031023502
1275,-0.866324365,2.123660088,-10.44035912,42.71282578,-9.509560585,4.36751318
1276,-0.586127281,2.183964252,-10.82698822,47.61529541,-4.920233727,2.77664423
1277,-0.543055952,3.080141544,-10.67920208,47.09582138,2.925800085,4.060297966
1278,-0.695040882,3.671110392,-9.869650841,34.05513763,8.585596085,7.557536125
1279,-0.421438396,3.447740555,-9.494217873,23.97325134,13.15705204,11.81011391
1280,-0.132621661,2.88630271,-9.208610535,20.57574272,15.77960682,19.74348259
1281,-0.370608151,2.560416222,-9.443490982,19.64121246,22.83073997,23.96026611
1282,-0.554562569,3.258027792,-9.568512917,12.4137516,29.01465034,24.07156563
1283,-0.980060339,3.845243216,-9.081694603,2.659276247,25.49766159,25.92357826
1284,-0.314090431,3.765353918,-8.802404404,-1.729919314,8.842607498,29.33095932
1285,0.348074496,2.669033289,-8.281681061,-2.248705864,-3.829014301,29.71215248
1286,0.305706471,2.400495291,-8.266878128,-3.701780796,-9.792355537,24.54590225
1287,-0.160554975,1.891947389,-8.998894691,-19.08280754,-6.720718384,18.92235184
1288,-0.070394874,1.100520611,-9.156890869,-28.0894146,-0.567534626,15.82669449
1289,-0.166991085,0.694701612,-8.918346405,-21.260252,7.098858356,13.58603382
1290,-0.089151569,1.579258561,-8.713307381,-12.47514534,6.921198368,8.449587822
1291,-0.037260525,3.201333046,-9.107749939,-10.70553017,0.447569311,2.59396553
1292,-0.186721504,4.148421288,-9.750364304,-14.15997314,-6.906144142,-1.469049573
1293,0.258886635,3.8112638,-9.832983017,-19.10692596,-14.06003475,-5.190302372
1294,0.603395641,2.585284948,-9.546512604,-15.45957184,-17.84013748,-8.58727169
1295,-0.165090516,0.954504669,-8.963695526,-3.398458242,-16.79473877,-10.83343792
1296,-0.828821599,0.313459694,-8.535326004,9.524024963,-15.15312481,-16.99090385
1297,-1.494414687,0.866928041,-8.153337479,15.88659668,-19.06408691,-23.29248047
1298,-1.900432348,1.330129981,-8.646737099,19.27065277,-23.5453949,-29.21577644
1299,-2.376183748,1.669689059,-9.565101624,23.16121674,-24.7364254,-29.26073837
1300,-2.419159651,2.116509914,-9.96203804,25.10398102,-19.71468353,-27.53418541
1301,-0.966649413,2.468540907,-9.168464661,23.8223114,-2.077847004,-28.92893791
1302,-0.333575726,1.594916582,-8.649450302,43.5023613,50.36487198,-31.41121483
1303,-1.732985735,0.65466094,-9.510746956,74.00904083,79.12651825,-36.42007065
1304,-1.875798821,-0.357379466,-10.68738079,93.5603714,74.59392548,-45.41889572
1305,-1.053622723,0.034743264,-10.18989944,107.6053619,64.04048157,-51.82057953
1306,0.029743239,-0.220945567,-9.939279556,114.5210724,51.4565773,-57.30422974
1307,0.082399324,-0.061039157,-9.04544735,139.5563354,53.73305511,-56.46362686
1308,0.183815897,-1.772552729,-9.13099575,150.1012878,54.04700851,-54.33512497
1309,-0.027577668,-2.669038773,-10.86433125,179.3806305,41.88466263,-54.99941635
1310,-0.122756064,-2.653988123,-12.76231861,197.3497772,23.20198631,-55.12073898
1311,-0.118677363,-2.011381149,-13.03930378,200.5055237,8.650196075,-50.48728943
1312,1.028875351,-1.644917965,-12.15662003,192.9693146,-3.083040237,-42.03715515
1313,1.397146463,-2.573361635,-12.01880455,180.5097961,-12.02765369,-37.37097168
1314,0.675793767,-2.431734324,-12.4913168,184.8285065,-30.59469223,-44.41242218
1315,-0.977813005,-2.647951841,-11.57668591,212.0478516,-36.50876999,-48.82717514
1316,-1.495355964,-1.923598766,-11.1488409,207.2241821,-38.09462357,-45.42791367
1317,-1.461368918,-0.999183595,-11.20986748,173.9984589,-37.29586411,-31.80927658
1318,-1.166957021,-1.881793976,-10.08884048,148.137085,-34.11460114,-21.17325974
1319,-0.903087199,-2.461394787,-9.328499794,134.0320435,-31.30518532,-12.84967327
1320,-0.472600937,-1.948331952,-8.480664253,111.544426,-23.61170959,-3.91289711
1321,-0.418407351,-1.9958179,-7.689472675,70.70461273,-21.43935013,5.107142448
1322,-0.380459577,-2.060229778,-8.604581833,21.89599228,-22.94270706,16.4348278
1323,-1.029588103,-2.350820065,-8.894001961,-19.00815582,-19.95877647,27.33639526
1324,-0.943653584,-3.049837828,-8.445681572,-43.95526123,-4.655377388,35.02509689
1325,-0.005075281,-2.791278124,-8.205196381,-62.37353516,10.69573784,38.91403961
1326,-0.065134361,-1.73551333,-8.126922607,-92.1567688,20.947258,45.15758514
1327,-0.408476859,-1.798214436,-8.997953415,-128.5858307,25.42599869,51.35636902
1328,-0.929429948,-2.927573919,-10.3220787,-144.288559,22.10872078,54.69811249
1329,-0.813742995,-4.674094677,-10.80073166,-144.7264557,15.08506393,49.94638443
1330,0.174755216,-5.373810768,-10.88294029,-134.0073242,6.137759686,44.3219223
1331,0.533332825,-4.511577606,-10.71539688,-122.6209564,-0.435691386,41.9520874
1332,0.157442734,-2.979357958,-10.64765549,-119.1681137,0.010821976,42.33360672
1333,-0.98151499,-2.536884785,-10.6727829,-117.9965973,4.720412731,42.23797607
1334,-1.482656717,-2.444566011,-10.77697372,-108.5857849,16.04879951,38.5246582
1335,-1.387977123,-3.001458168,-10.58923817,-93.51971436,28.43602371,31.90111542
1336,-0.626282454,-4.25767374,-10.53901863,-63.45557785,34.96395874,25.7232933
1337,-0.684247732,-3.921825409,-10.84897804,-51.44374847,46.19971466,18.93569565
1338,-0.5324139,-3.122367859,-10.49888134,-43.12099457,51.71231461,9.614753723
1339,-0.664905429,-2.425175667,-10.21697807,-35.67663193,61.44390488,5.922812462
1340,-0.667711616,-2.794569016,-10.61502934,-24.08974457,69.39732361,3.151318312
1341,0.258385986,-4.328410625,-10.2350111,5.480381012,78.90779114,-4.335819721
1342,0.883432746,-4.766684532,-9.591896057,49.09661102,84.48643494,-20.72003746
1343,1.601349473,-3.113206625,-8.760056496,89.58460999,80.17922974,-33.91901779
1344,1.773658037,-1.829369426,-8.604551315,110.1419144,74.95555878,-38.25743866
1345,1.708741665,-3.453884602,-9.128872871,129.0545654,58.7996254,-43.03106689
1346,1.46182394,-4.171887398,-9.684433937,162.6320801,40.24044418,-47.18772507
1347,2.043303728,-2.603715181,-10.73616123,179.4410706,10.40670776,-49.00774002
1348,2.945851088,-2.857351065,-11.41722202,169.4626312,-4.923269749,-45.17535782
1349,3.451312542,-2.961951494,-11.33787346,150.5868835,-20.46969986,-43.74845123
1350,3.730673075,-2.427547216,-10.71660328,134.025177,-44.42983246,-41.97274399
1351,3.320863962,-2.156485796,-9.818657875,121.8445511,-68.83397675,-36.42510986
1352,1.819823146,-2.088979244,-8.844898224,112.0683365,-81.89174652,-27.65137291
1353,0.541091561,-1.961635947,-8.288063049,89.26406097,-93.3405304,-22.51168823
1354,-0.286918223,-0.952866495,-7.899419785,50.35910797,-98.32512665,-15.12504387
1355,-0.879529953,-1.900388002,-7.702374935,-4.661856651,-105.924614,-7.858781815
1356,-0.885247231,-3.230168581,-8.453397751,-36.08218002,-112.1098633,-7.047609329
1357,-0.152657256,-1.829345942,-9.69241333,-36.40716171,-98.13397217,-1.04664588
1358,-0.259674877,-0.958538413,-8.759322166,-38.54832458,-53.33482361,12.59404659
1359,-1.119074106,-0.204796374,-8.592226982,-54.59389114,-28.02834702,25.23788261
1360,-0.613933921,-0.072298571,-9.341794968,-79.6111145,-14.89405727,41.75137711
1361,-0.853960514,-1.047983885,-9.400675774,-115.5354919,0.543467879,49.98775864
1362,-0.693148077,-1.488833189,-8.918501854,-138.5095673,10.95458317,59.95359039
1363,-1.004777074,-1.314922094,-9.032461166,-170.2676544,16.44947433,66.51867676
1364,-1.497492313,-0.416468143,-10.20615768,-200.8549805,17.60928917,71.19557953
1365,-1.739149809,0.596502662,-11.6621542,-205.4573364,10.29171181,68.92028809
1366,-0.56256175,0.844715238,-12.62411404,-200.0923309,2.609845877,68.24880219
1367,-0.122415692,0.360163182,-13.15437794,-195.0427246,-5.479449749,72.00273132
1368,-0.88138932,0.007611603,-12.92165089,-196.2864685,-9.255126953,80.40164948
1369,-1.578264713,-0.616529703,-12.38646984,-201.4391632,-6.805047512,82.18369293
1370,-1.89146328,-1.329128385,-11.7141943,-195.5873108,-5.24518919,74.43545532
1371,-1.95475018,-0.740513146,-10.67748451,-188.8028717,4.684077263,59.75046158
1372,-1.158079386,0.937088072,-9.774194717,-171.2914276,11.85294437,46.06388474
1373,-0.230952471,1.202822208,-9.369192123,-147.5862732,7.619134903,37.9181633
1374,-0.550282598,1.567410946,-9.049224854,-120.7259827,2.145815611,32.03255081
1375,-1.304097772,2.308897495,-8.823143959,-105.62677,4.181924343,29.29102707
1376,-1.158442736,3.115589857,-8.228577614,-94.14916992,8.072087288,24.95776176
1377,-0.788038909,3.997238636,-8.295376778,-85.62783051,8.897770882,15.23837948
1378,-0.623334587,4.131641865,-8.892838478,-71.06664276,-1.283635378,6.744443893
1379,-0.37268275,3.978832245,-9.339801788,-55.80383301,-7.81365633,1.828088403
1380,0.032141987,3.406459808,-9.034034729,-42.23868561,-2.705256224,3.524937868
1381,-0.438272327,3.475349903,-7.841676235,-29.94041061,2.542337418,3.26785779
1382,-0.744793117,3.276119947,-7.431413651,-7.272964001,0.063698784,-4.255082607
1383,-0.784926176,2.923696756,-7.798053741,24.02308846,-12.9130373,-14.26691628
1384,-0.7466802,3.652926683,-8.140034676,50.85267258,-27.71175385,-17.3109436
1385,-0.181677729,3.712471247,-9.150369644,61.29405594,-39.54745102,-14.99153996
1386,0.17037946,3.255434036,-9.962340355,64.64881134,-42.16114044,-13.72796726
1387,0.066710308,3.109678507,-10.3424139,58.62870407,-37.53627777,-10.93785667
1388,-0.0282447,2.59301877,-10.35365677,57.04069519,-29.15215302,-8.441588402
1389,-0.272130311,2.2075212,-10.24600697,57.77756119,-23.23523521,-8.820925713
1390,-0.330710024,1.086660981,-10.4289341,53.52383041,-22.67550468,-12.18966484
1391,-0.92558825,1.3379246,-10.53177166,56.70957565,-11.53975868,-12.30164337
1392,-1.636879444,2.71613121,-10.06894398,55.59503937,-4.109610558,-7.506865501
1393,-1.430173635,3.304412365,-9.91163063,44.20104218,-2.190278769,-4.14443922
1394,-1.332167745,2.459121704,-10.23058796,38.60896683,-3.048689127,-0.930443823
1395,-1.51924932,1.692147017,-10.57274151,44.69498825,0.045283571,-2.076314449
1396,-1.781382799,1.750752211,-10.63991928,52.07851791,2.627862453,-2.964576721
1397,-1.654877663,2.155339241,-10.66986275,56.46243286,1.311525941,-2.877229214
1398,-1.818266511,2.154063702,-10.49064732,58.42675781,-1.928089857,-4.2693367
1399,-1.77372694,1.855789542,-10.08170319,56.47228622,-2.526855946,-4.282958984
1400,-1.272066355,2.183097839,-9.940049171,47.20017242,6.658984184,-0.601102889
1401,-0.965653241,2.549739599,-9.550088882,35.26637268,25.84242249,2.642422438
1402,-0.880758047,2.922056913,-9.306472778,31.34188843,33.07015228,3.021680117
1403,-0.862355292,2.585219622,-9.760754585,36.93482208,26.88531303,6.205401421
1404,-1.301239133,1.184206486,-10.45968533,48.79911804,20.18773651,16.29257774
1405,-1.903477192,0.579357088,-10.23067093,59.5564003,19.65718269,22.3585453
1406,-0.939159691,0.945091784,-10.08698082,56.25403214,16.59944344,23.56341743
1407,-0.05487024,1.627551675,-9.86095047,39.10093307,8.856497765,27.93036079
1408,-0.805629492,2.199468851,-9.552143097,12.74625015,-3.772029161,31.61567879
1409,-1.488044739,0.776882052,-9.318437576,-10.56129646,-15.57136822,30.14629745
1410,-1.572369099,-0.19010818,-9.26685524,-19.11149216,-19.57882309,22.51263809
1411,-0.986839831,0.08042933,-9.518897057,-21.88835335,-22.64979935,15.74117184
1412,-0.734361827,1.376530766,-9.920606613,-24.27330589,-22.36267853,11.3483963
1413,-0.983746946,2.398946762,-10.34605503,-32.12137604,-22.72185326,8.299061775
1414,-0.714933515,2.13526535,-10.34561539,-43.54102707,-28.74526215,6.056975365
1415,-0.158696726,1.584472299,-10.06062794,-49.96340561,-36.89791107,4.214256287
1416,-0.228575498,1.885350347,-9.574484825,-55.73669815,-42.85788345,3.731719971
1417,-0.174876213,1.740672469,-9.421387672,-70.73369598,-44.43511963,-0.859564066
1418,-1.490131617,0.587552965,-9.576990128,-81.3024826,-35.33699799,-0.427763164
1419,-1.143738508,0.840020597,-9.28534317,-77.14976501,-34.14162445,-9.00302124
1420,-2.109056234,1.683458209,-9.141325951,-60.3396759,-31.5288372,-7.949653625
1421,-3.158453703,1.861684084,-9.310694695,-54.65908051,-17.64735985,-2.217336416
1422,-2.81283474,0.650743365,-9.369729996,-52.21109009,0.858174622,0.754365325
1423,-1.388949394,-1.103232384,-8.267365456,-40.11584854,14.05800438,-6.740877151
1424,-1.467609406,-2.38605237,-8.387524605,-12.67651367,7.433550358,-19.72898674
1425,-2.378090382,-1.424939036,-8.69857502,50.58409119,9.48837471,-41.10535812
1426,-1.919591784,1.183045387,-8.942436218,110.6261749,30.08522224,-62.56595993
1427,-1.580991745,3.084293127,-8.245976448,140.6036682,56.59830856,-71.88321686
1428,-1.00794816,3.398967266,-7.787443638,144.2770081,67.24190521,-71.44763184
1429,-0.540050149,0.296847522,-8.107688904,169.6430969,71.50167084,-62.73831558
1430,-1.082061768,-1.660546064,-10.26984787,210.2350464,72.47254944,-64.6627655
1431,-1.484313369,-1.377318025,-13.15429783,201.9515991,53.3968811,-66.28106689
1432,-0.854643464,-1.567474961,-14.18980026,195.2201538,35.77939224,-65.27671814
1433,0.245223045,-2.061796188,-13.94952583,176.120285,17.93564415,-64.0578537
1434,0.068347976,-2.144590616,-13.36005116,165.6021729,4.514319897,-58.51350021
1435,-1.084045649,-2.709419012,-11.63452244,170.8954468,-5.439749241,-47.89471054
1436,-2.353188753,-3.846373558,-10.13909531,190.0488129,-17.77362823,-44.25647736
1437,-1.907596231,-4.211150646,-9.602863312,190.6696167,-30.34682846,-43.1612854
1438,-1.620491862,-4.076594353,-9.844726563,179.9561157,-36.72027206,-38.92967987
1439,-0.88796401,-3.693025589,-9.201146126,172.7749939,-32.5859108,-38.34489059
1440,-0.287460387,-4.078132153,-8.070360184,156.097168,-23.42922974,-38.07226563
1441,-0.190183043,-3.783606529,-6.917879105,134.4012604,-12.89900208,-34.45891571
1442,-0.090860844,-3.897886276,-7.062561989,97.26805115,-11.8062048,-31.2437439
1443,-0.062570453,-3.579591274,-8.750822067,58.7466774,-21.26139069,-29.56058502
1444,-0.317572504,-2.899229527,-9.085674286,22.78010559,-15.59038353,-26.8411274
1445,-0.11230813,-2.809768677,-8.361967087,-6.077897549,-0.603435636,-13.6680851
1446,0.678687096,-3.069016695,-7.389178753,-33.70121384,2.291673899,3.946120024
1447,0.010939594,-4.28004694,-7.101581573,-61.66859818,5.927003384,21.34007645
1448,-0.747153878,-4.233672619,-6.815487385,-72.79025269,6.209664822,28.82616806
1449,-0.908072591,-4.406727791,-7.542545319,-90.21730042,9.982112885,34.6462059
1450,-0.583985686,-2.938389063,-8.882235527,-98.41888428,9.932611465,36.90829468
1451,-0.647567093,-2.899138212,-9.552966118,-93.53961182,17.63312721,37.723526
1452,-0.887939692,-3.285681486,-10.03635788,-84.93849182,23.80051422,42.93011475
1453,-1.325392365,-3.044799805,-10.51642036,-82.59965515,18.18076706,49.90717316
1454,-1.799157977,-2.381398201,-10.7963953,-83.68500519,11.09222126,51.07200623
1455,-2.001349449,-2.423321962,-10.92102718,-89.88471985,9.627137184,47.66225433
1456,-1.762935042,-2.632834911,-11.06428337,-93.92106628,9.235517502,41.7834053
1457,-1.739223599,-2.68454957,-10.83409119,-87.76655579,12.48511791,34.68567657
1458,-1.522203207,-2.392270088,-9.967690468,-72.42218018,17.82116127,26.87552643
1459,-1.205933332,-1.82437253,-9.853135109,-62.40008926,20.70596695,22.18376923
1460,-1.63245821,-1.586162567,-9.845026016,-59.11517334,20.40634918,17.55045319
1461,-1.643932462,-1.753195286,-10.11101723,-59.1103363,16.88038254,13.51451778
1462,-1.66675961,-2.03137207,-10.77693176,-64.2828598,10.41923046,8.049304008
1463,-1.435961485,-1.940907001,-11.43962002,-63.06082916,1.649941802,3.420969248
1464,-1.542192698,-2.226587534,-11.40377331,-51.80499268,3.780828953,2.290296793
1465,-0.649793446,-2.423152924,-11.08886528,-35.18278503,8.878567696,6.013710499
1466,-0.520409942,-1.460330963,-10.3305645,-28.67176247,26.49598122,6.950518131
1467,-0.12379957,-0.272431493,-10.34067822,-30.09769058,42.93459702,2.371976614
1468,-0.078387074,-0.596894205,-10.7281332,-17.43782997,43.04435349,-3.30465889
1469,-1.028056026,-2.379400253,-10.0810976,7.514091969,37.48945999,-12.89940453
1470,-1.336706042,-3.21219945,-9.756227493,36.97659683,24.72421837,-22.03765869
1471,-1.067260504,-2.374727011,-9.663361549,54.14074707,7.653698444,-26.16726685
1472,-0.538235903,-0.676114321,-10.14052582,51.63444519,-6.908065796,-27.28559875
1473,-0.401598811,0.400564492,-10.96439075,35.88753128,-12.74988365,-27.62184906
1474,-0.204702258,0.108661756,-11.24538326,22.02832031,-12.14457512,-23.59987831
1475,0.28504318,-0.943007469,-10.55498791,12.45818901,-10.86212254,-20.55120087
1476,1.136153936,-2.106672049,-9.299386978,8.098917961,-15.06062508,-18.03664589
1477,0.658711791,-2.473956823,-8.586201668,10.04950047,-22.44024086,-17.66234398
1478,-0.171478868,-1.849580646,-8.833667755,19.76413918,-25.74549484,-17.01327515
1479,-1.093214512,-0.931122243,-9.051730156,24.85699081,-17.71941185,-14.80632687
1480,-1.341526747,-0.575616419,-9.366179466,22.08912277,-15.35377502,-11.55185413
1481,-0.914903581,-1.096727371,-10.22929287,25.07022095,-15.01178265,-4.846494198
1482,-1.215950608,-2.113096714,-9.756793976,16.1974926,-14.31452751,-0.736328006
1483,-1.074241281,-2.69252491,-9.420632362,12.72597408,-9.54833889,-4.114766598
1484,-1.199683666,-1.31375277,-9.333227158,18.80951881,-2.600595474,-4.397955894
1485,-1.359088659,0.474348128,-8.841796875,-0.490476847,3.60509038,1.645513773
1486,-0.912255287,1.095121145,-9.410063744,-33.26985168,3.087625265,13.41080666
1487,-0.525692165,1.157188892,-9.613498688,-78.2312088,9.928851128,27.19169235
1488,-0.509872496,0.316991091,-10.30570221,-116.355072,17.82258987,44.52033997
1489,-0.85043478,-1.027948022,-10.01626492,-148.8140411,30.58058167,53.61965942
1490,-1.122402072,-0.432259351,-9.930024147,-174.0775299,38.35656738,50.69178391
1491,-0.644419372,0.14119494,-10.67917061,-172.2276001,41.83820724,43.29606628
1492,-0.147515252,-0.257927716,-10.64851952,-168.3901062,35.75418472,36.48272324
1493,0.083094999,0.535016656,-10.49710274,-164.9633636,28.59273338,34.2005043
1494,0.231960267,1.167022586,-11.25051022,-146.2253418,18.44224167,35.66664505
1495,-0.129602075,1.448340178,-11.37850761,-139.7998505,15.90735149,39.77155304
1496,-0.518023074,1.891551375,-10.7519989,-140.8943481,15.73348904,43.55850601
1497,-0.34786135,2.843886852,-10.33544922,-145.4885559,16.39761734,39.44915771
1498,0.169731155,3.822353363,-9.989748955,-151.8294067,16.13246727,28.46780014
1499,0.338638991,4.119829178,-9.385140419,-156.4963379,10.93486881,19.04753494
1500,0.498623222,4.494840622,-8.923728943,-151.4576569,3.473505735,11.40599442
1501,0.167414486,4.932257175,-8.927972794,-136.1208191,-0.326692075,5.265277386
1502,-0.224853411,5.237882614,-8.612047195,-122.1091156,0.442469865,5.272037029
1503,-0.168825552,5.034036636,-8.016631126,-112.4282455,2.840908527,8.021039963
1504,0.119331218,4.834340096,-7.44209671,-105.4278412,5.081107616,8.418253899
1505,0.13947697,4.715969563,-7.155413628,-96.35958862,1.174201488,6.33921051
1506,0.243669152,4.693210125,-7.533696651,-86.5869751,-5.781471729,5.070911884
1507,0.525078356,4.961911678,-7.548584938,-73.39984894,-13.71723461,0.566000521
1508,1.442147493,5.031591415,-7.361341476,-42.90189743,-24.30827332,-6.221923351
1509,1.950246096,3.098279715,-7.453471661,-5.382710934,-36.38630676,-12.63623905
1510,1.274296403,0.998208106,-7.880818367,40.60374069,-33.65710831,-21.47303009
1511,0.288366139,0.966536164,-7.863083839,91.75629425,-19.4779644,-32.92640686
1512,-0.812228799,3.07743001,-7.540510654,134.3256226,-7.779008389,-40.58525467
1513,-0.95936054,4.487784863,-8.265108109,154.6078491,-4.916732311,-41.98397064
1514,0.15558587,4.108695984,-10.12029457,164.628891,-5.38087368,-42.45228577
1515,0.48640275,3.383686543,-11.1338644,166.7242889,7.321977615,-37.03339386
1516,-0.149074107,3.511100531,-10.54314613,153.0265503,15.06392288,-32.65153885
1517,-0.322265595,4.07207489,-9.781273842,138.3428497,14.40877438,-34.3838501
1518,-0.424719453,4.276482105,-9.862241745,121.6116257,8.413217545,-37.99863815
1519,-0.404235125,3.702542305,-10.012784,105.0474854,2.906414032,-38.82754898
1520,-0.393805057,2.67010498,-10.47824478,103.8108063,0.381017864,-35.72128677
1521,-0.423478872,2.009674549,-10.63080692,109.8808365,0.096481033,-29.39439583
1522,-0.778458297,1.231545568,-10.90876007,110.2871246,-2.220982313,-21.05970573
1523,-1.006085396,0.931158304,-10.89779377,99.89469147,-0.32947439,-13.11275768
1524,-0.592557311,1.175795794,-10.82068539,86.95928192,-0.889982045,-10.66859818
1525,-0.218834057,0.949685693,-10.65423298,75.20950317,-3.601724386,-10.62935162
1526,-0.663256347,0.50162816,-10.79828835,66.87978363,-0.242754608,-6.922025204
1527,-0.565022171,-0.367829502,-10.45367527,61.93446732,3.50590086,-3.406067848
1528,-1.019721389,-0.613635659,-9.984425545,64.66791534,3.454742908,-1.028448224
1529,-0.672636032,-0.435436249,-10.67103577,63.32890701,-1.171675801,1.918764114
1530,-0.35255295,0.056942135,-11.48710251,52.60206985,-8.034069061,6.971955776
1531,-0.147237495,0.362826616,-11.098382,34.45581436,-0.632233322,12.79061985
1532,0.462586701,0.465477794,-10.19946957,28.74876595,7.580887794,14.53121567
1533,0.205923781,-0.066342011,-9.985138893,22.22784615,8.260194778,13.74945831
1534,-0.150178894,-1.036970854,-9.573181152,12.86281967,3.017078161,16.73902702
1535,-0.546017647,-2.054505825,-9.687432289,-2.203509569,-2.742594004,22.81582451
1536,-1.219892859,-1.077047706,-9.576963425,-19.15211105,-6.759195805,24.96861649
1537,-1.15201807,-0.597420573,-9.532442093,-31.3839817,-9.111824989,22.16299438
1538,-0.8789922,-0.409529865,-9.554850578,-36.7533989,-7.534244537,15.76705265
1539,-0.728498638,0.46424672,-9.95541954,-34.50667191,-6.315628529,10.48919201
1540,-0.656251371,1.048883796,-10.54796696,-37.87831116,-5.710900784,9.860225677
1541,-0.88241601,1.14306879,-10.7701683,-47.13475418,-8.265745163,14.4912672
1542,-0.749877512,1.094641328,-10.01348686,-53.5442543,-13.02799129,16.25953865
1543,-0.117244549,0.905088067,-9.607822418,-56.77991486,-19.55391121,14.31844616
1544,-0.145465642,0.631279469,-9.279180527,-54.97335434,-28.10183334,12.5140667
1545,-0.549835742,0.148322001,-9.195999146,-50.32626343,-33.31614304,13.21252441
1546,-1.243045211,-0.43617326,-9.653132439,-33.2841301,-39.17014694,10.88200092
1547,-1.482371807,-0.628813446,-9.890547752,-2.522735357,-26.18097496,3.668477535
1548,-1.74501121,-0.429143876,-11.11741447,20.18873215,-7.254213333,-3.072497845
1549,-1.505862355,-1.008307934,-11.25484371,67.33416748,27.54561234,-13.7444849
1550,-1.431396842,-2.34267211,-10.5329113,75.69166565,46.6848259,-19.80844879
1551,-1.301391482,-2.826728821,-9.685685158,79.00076294,41.72494888,-27.10426331
1552,-0.096922003,-2.166722775,-9.947118759,88.35326385,26.33240509,-39.16466904
1553,-0.073149748,-0.864353776,-10.21876144,108.8420105,21.72261429,-43.3071785
1554,-0.013070617,0.376307845,-9.327679634,114.1095276,26.55680466,-38.38702774
1555,-0.401183456,-0.080483913,-9.406060219,121.3374252,28.08799553,-36.98563004
1556,-0.680546701,-0.700495601,-10.22251225,145.3285217,30.0382328,-47.56856155
1557,-0.901633561,-1.883845448,-10.9854269,169.6681061,30.88586617,-51.50640869
1558,-0.694561839,-3.102073669,-10.90753365,184.8671112,29.57912064,-50.09318924
1559,0.236214846,-2.795886755,-10.19785404,180.1107025,20.86108589,-41.42454147
1560,1.193544507,-3.243862391,-9.842179298,164.1222992,3.930425644,-31.78368378
1561,1.228918552,-3.582489014,-10.35052776,153.9375305,-15.70183659,-29.53419876
1562,0.311727703,-2.929625034,-10.09940147,157.1909027,-29.70397758,-31.0918026
1563,-0.529136658,-2.086366653,-9.747372627,156.869278,-37.95930099,-28.5113163
1564,-0.617995858,-2.342445374,-9.199415207,150.4178314,-42.4447403,-26.53977776
1565,0.160354704,-3.358590364,-9.385381699,133.4277802,-44.46284485,-23.07357979
1566,0.647701681,-4.974713326,-9.824317932,104.8096313,-42.20347214,-14.22721195
1567,0.105172426,-6.274932384,-9.081381798,89.84353638,-38.19673538,-9.94539547
1568,-0.546402752,-6.71231699,-7.923317432,75.94041443,-24.43144798,-8.157336235
1569,-0.468952268,-6.472565174,-7.849155426,59.18406677,-10.77733517,-0.998882413
1570,-0.093456089,-5.433193684,-6.734545708,46.08899307,-4.255095959,7.088400841
1571,0.192822233,-4.141893864,-5.723679066,20.64422226,-10.9762392,15.84513092
1572,0.487249821,-2.173781157,-5.629745483,-32.99271393,-19.30707741,26.2048912
1573,0.092577063,-1.368873358,-6.273386478,-89.4486618,-18.65321541,33.9238472
1574,-0.970264494,-4.065938473,-7.057186604,-124.2561035,-6.155049801,39.38928604
1575,-1.628807783,-5.252616405,-7.077084064,-125.503891,-0.636334956,37.98588181
1576,-0.903243363,-3.687200069,-7.625329018,-136.9937439,0.609113634,40.03266907
1577,-0.73505038,-2.40510273,-8.566308975,-151.9976807,1.270221949,47.7798233
1578,-1.215868354,-1.939277411,-9.793114662,-154.4871216,5.976696968,46.90197372
1579,-1.300611138,-2.70115447,-10.98973942,-143.82724,15.44895267,40.54601669
1580,-0.974405289,-3.582876682,-11.74219513,-128.5573425,22.09512901,33.07639313
1581,-0.446978331,-4.788246632,-11.79256153,-104.8954086,24.04468346,28.73471451
1582,-0.14834857,-5.23331213,-11.11177063,-86.76197052,16.23447227,27.62644958
1583,0.185459584,-4.968644142,-11.29130936,-74.15089417,3.403591156,24.46821976
1584,-0.797092557,-4.105856419,-11.52617836,-59.13199615,1.913907647,12.55810547
1585,-1.877227426,-2.833189487,-11.07231426,-38.19761658,11.80434418,0.972532511
1586,-1.68574059,-1.326630473,-10.24463272,-19.92860603,24.96804619,-4.69187355
1587,-1.315373302,-0.539568126,-9.871935844,-24.967453,31.787714,-6.533512115
1588,-1.982537985,-0.728330672,-9.528383255,-38.21998596,30.2998848,-10.82646179
1589,-2.312991619,-1.249133825,-10.04484367,-47.06304169,23.01882744,-20.59292412
1590,-1.550402522,-1.278444052,-10.96412849,-42.56178665,12.04686546,-26.90546036
1591,-0.51193893,-2.678744316,-11.11249161,-30.88688087,1.464908242,-28.91440773
1592,0.454905719,-3.112222195,-10.56194878,-16.26979256,-10.84099293,-29.27087784
1593,0.271226764,-2.911960602,-9.652816772,-11.70979214,-3.106940746,-30.19762993
1594,-0.378212124,-1.971354127,-9.591901779,-8.49088192,1.492893696,-33.5967598
1595,-0.835689843,-1.585711122,-10.09277248,8.583003998,2.63138628,-38.96016312
1596,-0.776686847,-1.540799499,-9.989375114,26.9666996,0.51099658,-38.21881104
1597,-0.89262557,-1.763817072,-9.820250511,34.93427658,-6.486895561,-30.81440926
1598,-0.871220231,-1.149418712,-9.948067665,35.47094727,-18.461689,-18.62550926
1599,-1.380443335,-1.144659281,-10.38344002,31.95235634,-22.24550438,-13.18000221
1600,-1.127607703,-1.021094561,-10.59013844,27.32606125,-22.36269951,-14.30454636
1601,-0.761993349,-1.106262326,-10.29152775,23.37349892,-27.94106865,-14.31097984
1602,-0.449711323,-1.132441282,-9.76343441,27.89392662,-41.30931091,-10.63075066
1603,-0.462824762,-0.646654606,-9.565643311,33.56771851,-58.81641388,-5.706942081
1604,-1.057082057,-0.801221728,-9.594135284,40.6347084,-64.19872284,1.033928871
1605,-1.508699894,-1.171547294,-9.266437531,34.46969986,-51.15043259,6.511706829
1606,-1.483360648,-1.339410305,-9.335191727,27.22830963,-37.85647964,8.358270645
1607,-1.61007309,-1.681799054,-9.69626236,18.78670502,-36.23305511,11.76011372
1608,-1.990668535,-1.817085624,-9.339821815,11.96014118,-35.77407455,13.4737711
1609,-2.056885004,-1.641413331,-8.959122658,5.606028557,-30.37924004,15.90350342
1610,-2.310781002,-1.36421752,-9.474107742,-0.448217452,-23.19835663,21.58653831
1611,-2.075354099,-0.471018463,-9.186803818,-22.82523346,-14.64374447,30.78398323
1612,-1.792537451,0.769340158,-8.920032501,-58.83576965,-4.408506393,41.29444122
1613,-1.430544734,0.885066032,-9.08727932,-94.51822662,10.29238033,54.25042343
1614,-1.545489073,0.801080942,-8.776723862,-118.6871338,20.65866661,61.82912064
1615,-1.409736872,-0.155183733,-9.135786057,-132.1603851,28.34031296,67.21955109
1616,-1.901110172,-0.903498411,-9.691988945,-133.5952301,34.07685852,62.68909454
1617,-1.860332608,-0.921742439,-10.32818127,-128.0307159,35.25898743,58.50006485
1618,-1.837547898,0.459283948,-11.08940887,-120.4328461,33.71667862,59.14001465
1619,-1.79551208,1.674572587,-11.71444511,-125.6107025,34.47991562,58.73697662
1620,-1.423560977,2.562116861,-11.53284359,-134.8398743,32.14189529,53.85997772
1621,-0.781588852,2.044181108,-11.71762753,-134.4940033,26.11541748,50.82131577
1622,-1.094843984,1.732361794,-11.36330128,-139.7058716,16.37960243,46.43497086
1623,-1.907555938,2.421197176,-11.41402245,-145.2386932,4.561450005,41.23621368
1624,-2.359320402,3.080005884,-11.12922955,-148.0355072,-3.711127758,34.1417923
1625,-2.147576571,2.809588194,-10.48985672,-146.8876801,-4.137509823,22.84515572
1626,-1.451429725,2.549653769,-9.51289463,-137.5496368,-2.508029461,12.50872421
1627,-1.386787772,2.96253252,-8.985152245,-119.1347046,-1.452216744,6.014329433
1628,-1.683937788,3.794812202,-8.862257957,-103.3987274,2.927475452,4.206852436
1629,-2.099324465,4.426106453,-8.980612755,-94.85912323,2.434448957,2.550542355
1630,-1.643406868,4.935593128,-8.837292671,-96.99432373,0.865981221,0.785862029
1631,-0.902103543,5.557368279,-7.03379631,-106.8740768,0.125725001,-5.790952206
1632,-0.342680901,6.468723774,-6.607739449,-83.54819489,-15.96741486,-18.26549721
1633,0.725786865,4.550156593,-6.798610687,-30.91539764,-35.91459656,-24.32338905
1634,0.266371995,2.1992805,-6.438370228,13.10114098,-39.36446381,-22.64719009
1635,-0.478531659,2.326285124,-6.582830429,43.11084747,-27.3170166,-24.67481613
1636,-1.317463994,2.856420755,-7.443975449,72.98426056,-15.49851608,-34.64559174
1637,-2.041134596,1.724648476,-7.974612236,91.61958313,-8.799020767,-43.56282425
1638,-1.594088197,2.111615658,-9.295214653,112.365097,-4.995342255,-44.35464096
1639,-1.230784774,2.721060991,-10.47112656,120.1415024,-1.376381755,-37.57371902
1640,-1.152526379,2.566509247,-11.54649353,119.0630798,4.473481655,-28.13170052
1641,-1.196130753,1.8099823,-11.20723057,108.6554947,13.66405106,-21.16958618
1642,-1.057820559,1.883449435,-10.55834198,98.23720551,18.30963707,-19.88100243
1643,-0.996631086,2.669468641,-10.31412697,87.61500549,22.19949722,-18.18226242
1644,-1.609549999,2.924659491,-10.35112858,70.42179871,26.84492493,-15.08457756
1645,-1.588410616,3.075363636,-10.28802299,46.79686737,30.04049301,-10.88327408
1646,-1.402499676,2.869362116,-10.48467159,33.2961998,24.29803085,-7.614746571
1647,-2.141957998,1.67710793,-10.49992943,32.43731308,19.38251877,-4.36730051
1648,-2.015453577,0.965659022,-10.5661993,41.3390274,15.47127819,-1.460273266
1649,-1.612024188,1.127765536,-11.06203556,50.84500885,9.41852951,0.036895432
1650,-1.619292855,0.872771442,-11.09142208,52.44548035,7.586852074,4.369249821
1651,-1.434134007,0.224786371,-10.92939186,42.42039108,23.29690742,9.004207611
1652,-0.679908991,-1.138275623,-10.25720596,41.24134827,42.3288002,10.24554253
1653,-0.86010325,-1.054119587,-9.636041641,56.73883057,51.73761368,4.704062462
1654,-1.294020772,-0.468519062,-8.888037682,56.77653122,48.72937775,1.238718748
1655,-0.965318084,0.034721084,-8.806895256,52.05817413,41.82912827,1.716743708
1656,-0.514212787,0.398647696,-9.429394722,52.41585922,29.34150696,5.865255356
1657,-0.110904261,0.150203139,-10.17080879,45.66054916,19.91585732,6.919895649
1658,-0.272527099,0.523533583,-10.20057774,38.04793167,21.69857979,9.183805466
1659,-0.330744088,0.779357791,-9.943932533,27.40343285,23.6705265,14.53113556
1660,0.013623748,1.242712379,-9.899244308,15.57460403,22.20966339,19.26435661
1661,-0.247175962,1.812859178,-9.760042191,5.931260109,18.77375031,22.66612244
1662,-0.731755853,1.186228275,-9.882277489,-0.506018877,15.51528072,25.34245491
1663,-1.0488379,0.024776541,-9.869715691,1.980539083,8.773633003,24.86496735
1664,-1.048590183,-0.362802416,-9.58510685,7.642463684,0.135190442,19.78879166
1665,-0.815955043,-0.036777988,-9.607205391,12.30622578,-6.475532055,13.15088272
1666,-1.001167297,1.425396562,-9.619920731,12.44637394,-14.80184269,4.731139183
1667,-0.437860131,2.236038446,-9.683197975,2.838051796,-21.69076729,-6.594436169
1668,-0.317986041,2.180128336,-9.926153183,-8.437659264,-23.84078026,-10.47368145
1669,-1.312630653,1.242782831,-10.26455116,-16.59522438,-21.66971779,-6.926494122
1670,-2.149620295,-0.409545422,-10.31290436,-12.47469807,-21.35107803,-0.892790139
1671,-2.397888422,-2.021899939,-9.923221588,0.991278291,-27.99485588,1.504161119
1672,-1.431861758,-2.520703793,-9.589420319,15.78976536,-36.16230011,-2.228438616
1673,-0.695871055,-1.423667431,-9.090437889,28.09290695,-41.6271553,-7.229903221
1674,-0.337160021,-0.469896674,-8.436113358,38.64434433,-39.21307373,-11.10456562
1675,-0.537619829,0.53814882,-8.332273483,39.6303978,-29.64275169,-14.06349277
1676,-1.373038888,0.527651668,-9.007603645,43.94638824,-14.4710722,-17.20294762
1677,-1.571839094,-0.223693401,-9.519002914,72.51464081,5.554585457,-22.37975121
1678,-1.383511066,-0.953661203,-9.829298973,102.9550629,28.1303978,-26.21265984
1679,-1.624386191,-1.9040519,-11.05278969,104.1950912,62.61737061,-25.03417397
1680,-1.007152796,-2.246353626,-11.65474319,89.19968414,49.12126541,-26.84683228
1681,-0.646414638,-2.493512869,-11.30643654,84.45206451,33.48500824,-28.68831062
1682,-0.419273674,-2.892673492,-10.32647038,86.73810577,32.3481369,-31.21551132
1683,-0.635961235,-2.844621658,-9.993718147,91.51805878,31.56783104,-35.29852676
1684,-1.198214769,-1.989741206,-10.44787979,114.0751724,28.99169731,-43.34761047
1685,-1.434145093,-1.624150753,-10.7343502,137.9633942,27.65190887,-46.41205597
1686,-0.788929582,-2.372225046,-10.70618534,144.1860504,22.34209633,-41.49207306
1687,0.034700107,-3.90790081,-10.58891582,130.2927551,11.52141285,-34.47402191
1688,0.456039518,-4.25339365,-10.54999065,113.4099655,-3.69550848,-28.79965019
1689,0.82500577,-3.36665988,-10.52492237,106.5081711,-18.48888397,-25.98962021
1690,0.7104249,-2.571839094,-10.32880402,89.95740509,-30.63601112,-29.02128983
1691,0.471745878,-1.933661222,-9.842674255,70.50218964,-40.1432991,-34.57777405
1692,0.352518886,-2.883331776,-9.134883881,78.67796326,-26.97923851,-32.75953674
1693,-0.13952738,-3.395208597,-8.639220238,86.48466492,-22.50857925,-28.02773666
1694,-0.957499385,-3.342086315,-8.802308083,76.0026474,-33.76252365,-20.75651932
1695,-0.400963247,-3.962931633,-9.546092033,51.80733109,-41.66827011,-15.07725334
1696,-0.221737698,-4.785369396,-9.001514435,34.24118805,-35.80988312,-14.003232
1697,-0.058583058,-5.14095974,-7.480240822,30.44738197,-25.13315773,-9.879631042
1698,-0.456930608,-4.636185169,-7.354254246,15.94480228,-22.52457619,-2.03283453
1699,-0.67897898,-4.291219711,-9.039473534,-5.690028667,-25.58530235,1.346482038
1700,-0.667399228,-3.417925358,-9.477531433,-26.33501625,-19.59541702,-2.921229124
1701,-0.805281103,-2.882341862,-9.273103714,-51.21913147,-1.957615852,-0.585249186
1702,0.399684548,-3.128426552,-8.203603745,-70.82405853,6.577801228,10.8313179
1703,0.535174251,-4.853123665,-7.890005112,-91.58382416,7.142497063,19.82129288
1704,-0.047673699,-5.913864613,-8.3963871,-96.79079437,6.004581451,21.98773193
1705,0.020677645,-5.096838951,-8.899582863,-93.76956177,2.985909939,19.15261841
1706,-0.274293214,-3.504052401,-9.365599632,-92.6034317,3.247817993,18.20707893
1707,-0.662404358,-3.263109922,-9.626811981,-95.4934845,2.771116972,17.08457184
1708,-0.482437611,-3.1561656,-9.912872314,-100.437233,-0.762690842,17.28245544
1709,-0.204144388,-3.168328047,-10.21082592,-97.51356506,-5.07475996,22.95795822
1710,-0.349023461,-3.060857296,-10.28287601,-85.92881012,-10.05736923,25.01994705
1711,-0.783261597,-2.683106184,-10.45928383,-71.64357758,-11.09561539,25.75982857
1712,-1.307537436,-3.425710917,-10.32702351,-57.54020691,-8.120188713,22.57905388
1713,-1.804893613,-3.064014673,-10.15420532,-42.39051437,-1.585340977,13.46474171
1714,-1.76510787,-1.888840795,-10.11245155,-38.6598587,5.392373562,5.283044815
1715,-1.558809161,-0.787383556,-9.953934669,-43.70761108,10.9365406,-2.686227798
1716,-1.701366067,-0.251424998,-9.832665443,-55.86828232,12.98596478,-5.659448624
1717,-1.701932788,-0.305267155,-9.561325073,-65.35340118,18.35328102,-7.534765244
1718,-1.154851198,-0.436590046,-9.045412064,-74.53691101,25.18900108,-4.056711197
1719,-1.583325982,-0.286782235,-9.164622307,-82.03586578,20.87858963,1.191110134
1720,-1.793860912,-0.427025616,-10.07234764,-89.82608032,10.66860867,8.31416893
1721,-1.567964673,-1.611661434,-10.28638744,-81.47464752,3.989777327,6.738404751
1722,0.105596989,-1.469463944,-10.61199093,-62.12543488,-1.250448465,7.971088886
1723,0.156120613,-0.297079653,-10.98461723,-56.39446259,1.095902801,5.03447628
1724,-1.005958676,-0.409977108,-10.6999464,-42.83320236,13.27977371,6.208377361
1725,-0.75559473,-1.302669525,-9.964011192,-18.9034729,17.7671032,12.66003036
1726,-1.1762954,-0.725016892,-9.506484032,4.020344734,9.982228279,6.888391018
1727,-1.242477298,0.051320717,-9.442254066,16.11782837,-6.82010603,-2.448333502
1728,-1.539228439,0.867151856,-9.479599953,18.74622536,-24.04149628,-8.104602814
1729,-0.917545855,1.171663761,-9.439785004,17.39928055,-33.82780838,-8.646970749
1730,-0.270052969,0.495839298,-9.027010918,19.70730972,-42.99845505,-4.640372753
1731,-0.04267716,-0.536145568,-9.168416977,29.98711967,-42.02854919,-1.194043279
1732,-0.893563628,-1.057682037,-9.247180939,46.81226349,-31.86631012,0.169654027
1733,-1.738209128,-0.589755416,-9.455230713,58.28582382,-23.0581665,2.858032227
1734,-1.998014688,0.143432945,-9.669322968,49.24608994,-25.52135468,6.688881397
1735,-2.200051308,-0.02831907,-10.14134789,29.14305496,-35.46798706,10.17115688
1736,-2.027728081,0.173151061,-10.07508945,16.7374649,-41.75440598,12.22070694
1737,-1.695795536,0.596536636,-9.267813683,2.364229202,-32.00034714,15.07665062
1738,-1.41257143,1.604900241,-8.601713181,-17.66304779,-17.20152855,16.60441208
1739,-1.770947218,2.415154934,-8.963121414,-41.74867249,-11.66598892,21.19233131
1740,-1.844435453,3.102646351,-9.861293793,-71.72637177,-13.50015831,31.71063232
1741,-2.56643796,3.238764286,-10.10903645,-113.7359619,-5.317704678,42.75381851
1742,-2.29283905,3.351579428,-10.54038906,-138.7268677,9.67121315,50.7009964
1743,-1.621263266,3.230197906,-9.693119049,-188.372757,46.40299606,51.66194153
1744,-2.343511343,2.137582064,-11.96992397,-170.3976593,45.33818817,46.25784302
1745,-1.852120042,1.352597475,-11.80029869,-155.4391785,38.18572617,44.87518692
1746,-1.355796695,1.864675164,-11.33590412,-139.6851501,31.02809143,43.02299118
1747,-1.098792911,3.378715515,-11.59003448,-129.7293549,25.79734039,44.98455811
1748,-0.611795902,3.801618576,-11.66919327,-124.8991776,16.15136337,45.40531158
1749,-0.565630972,3.211700678,-11.54881668,-127.9560699,3.667407036,39.66201782
1750,-1.145633101,3.7672894,-11.0593338,-137.2077637,-4.415074825,32.66479492
1751,-1.645224571,4.007108212,-10.3845892,-144.489151,-6.133089066,26.61470032
1752,-1.350517511,3.322161913,-9.005489349,-132.8724518,-3.772432566,17.21255875
1753,-0.46864298,3.138982534,-8.485283852,-103.0295868,-1.749828935,6.758444786
1754,-1.057156801,3.334340096,-8.42749691,-74.09365082,-4.568107605,-2.095627069
1755,-1.49258697,4.129880905,-8.467211723,-60.221138,-6.051840305,-2.842066765
1756,-1.414627314,5.131187439,-8.400297165,-59.37288284,-3.311180592,-0.57179141
1757,-0.909983814,5.43614912,-7.77376461,-53.88635254,-0.042722415,-1.952373266
1758,0.206820548,4.979055405,-7.376186371,-42.4789238,-1.593434215,-9.32634449
1759,0.888498724,3.212748766,-7.479359627,-21.2729702,-2.906391144,-20.90846252
1760,0.607535422,1.448259354,-7.526362896,16.65609741,3.201191187,-30.2634964
1761,-0.497352064,2.169519901,-7.669588089,55.08800507,5.127432346,-35.21701431
1762,-1.078591704,4.310301781,-7.3333354,81.79852295,15.24443054,-33.27561951
1763,-0.867158353,5.182257652,-7.762332916,93.37268829,23.08524132,-28.95808983
1764,-0.354239702,4.990647316,-8.701889992,106.0953369,23.55514717,-30.169981
1765,0.128623188,3.70737958,-9.965654373,124.5186157,16.40843201,-30.80521202
1766,0.357934773,2.99797821,-10.35133648,132.8953857,9.703609467,-29.28341484
1767,-0.134081259,2.892530203,-10.09510326,127.4575882,5.035936356,-24.72115517
1768,-0.646622121,2.960006714,-9.807952881,118.5372772,5.454079628,-19.34306145
1769,-0.927593112,3.151758432,-9.636575699,107.0940475,7.949945927,-12.91690731
1770,-0.817027509,3.271177769,-9.517243385,86.03969574,8.235404968,-6.386318207
1771,-0.529824078,4.124279499,-10.20205688,62.67216873,7.692550182,0.357289374
1772,-1.05712533,3.774106026,-10.87749958,40.78327179,9.807370186,8.100183487
1773,-1.517032504,1.391567588,-10.78390598,42.64851379,15.56169796,11.94200611
1774,-1.534862995,0.583991945,-10.4925251,54.45195389,11.2147522,10.93559551
1775,-1.579194665,0.598256588,-10.62740421,59.56998062,3.622360945,9.359962463
1776,-1.620527625,0.916257501,-10.75613403,59.80434418,6.668597698,11.39579201
1777,-0.949238837,1.379931092,-10.99306583,58.66308975,16.92468834,13.95742989
1778,-0.42417872,1.416578293,-10.41705799,59.0066185,28.26326752,16.00501251
1779,-0.599528551,1.237099886,-9.410545349,60.65053177,39.08163071,15.99172497
1780,-1.050638556,0.950763404,-8.814873695,57.78262329,41.14580917,16.45835114
1781,-0.911175072,0.586991072,-8.402367592,44.87455368,31.63173294,17.2981472
1782,-0.802636623,0.572444916,-9.122497559,34.46350479,18.01683807,15.50095081
1783,-0.546082079,1.231212616,-9.722467422,21.18111801,2.733444214,11.72792625
1784,-0.416327029,1.820731759,-10.26259995,4.56830883,-4.784320354,11.80050755
1785,0.008119038,1.451388121,-10.39646339,-9.866174698,-2.843597174,18.79661369
1786,-0.040515624,0.186758637,-9.72114563,-25.08507538,11.34918404,28.57603645
1787,-0.118197344,0.154063314,-8.729207993,-29.19996834,22.53785896,27.93873596
1788,0.30399856,0.841154158,-8.5151968,-34.40423203,23.88871002,18.94515228
1789,0.042022288,2.365488529,-8.744359016,-47.33029938,23.50596809,14.39790535
1790,-0.628634274,3.002649069,-9.676194191,-60.8248024,24.44746971,15.43190956
1791,-0.856448352,2.792549133,-9.737792969,-62.90407562,19.0071907,16.38973618
1792,-0.27838704,2.3463552,-9.338681221,-51.90407944,8.006243706,16.99059486
1793,0.19321467,1.51710391,-9.286818504,-45.34116364,-7.911322594,17.61698532
1794,0.15195176,0.598983169,-9.265164375,-38.46699142,-23.26852036,18.3732338
1795,0.008191325,0.088633358,-9.257905006,-30.33124542,-34.94455338,13.01642799
1796,-0.177087769,0.349560171,-9.510622978,-21.31470299,-39.76210022,2.672640562
1797,-0.140948787,0.875330865,-9.432384491,-11.67968655,-35.59701157,-7.961985111
1798,-0.857010543,1.46953094,-9.636841774,-5.34771347,-26.87540436,-15.52321339
1799,-1.640930295,1.545226455,-9.968699455,-2.56523037,-11.01139927,-15.78215599
1800,-1.521086931,1.30601573,-10.19029045,1.527497768,1.992176414,-15.1835537
1801,-1.039567709,1.437622786,-10.59105206,12.7649765,13.02949142,-18.22386932
1802,-0.552918851,1.514302015,-10.45805836,28.61652946,28.23193741,-22.68693161
1803,-0.371154189,0.978130817,-9.47813797,90.9213028,57.774189,-32.25397873
1804,-0.733189583,-0.465329766,-9.802957535,100.4433441,44.64235687,-34.03029633
1805,-0.717192948,-0.768578172,-11.68120861,78.55363464,27.28041077,-33.70780182
1806,0.190369248,-0.703012109,-10.80308628,98.21191406,28.53864098,-40.62861252
1807,0.629516959,-0.174333736,-10.5601263,109.2841797,32.90724564,-46.91095352
1808,0.231367201,0.409992367,-10.15329647,125.2667465,39.52692795,-49.04138565
1809,-0.416353762,-0.319847465,-9.911440849,140.3773041,49.55012894,-45.93238831
1810,-0.111708038,-1.256688237,-10.58394623,154.3124084,45.44319534,-42.81271362
1811,-0.220050618,-1.590890288,-11.56637573,170.6034088,31.80931854,-42.05516052
1812,-0.001014423,-2.061713696,-11.76101685,174.5002441,21.12613487,-43.36779785
1813,1.234427333,-2.985891104,-11.23311424,171.8648376,10.16730785,-41.18909073
1814,2.075892925,-2.914648533,-11.25655746,167.9495544,-0.169375226,-37.31934357
1815,2.308809757,-1.823014021,-11.3792038,161.5479431,-9.403302193,-30.73571587
1816,1.488189816,-1.525529146,-11.003685,153.2279816,-17.18653679,-26.63685036
1817,1.05259335,-1.884368181,-10.45655632,148.9073029,-27.47795868,-26.10770607
1818,1.349666119,-2.22218585,-9.818894386,141.3106537,-34.14172745,-23.74608612
1819,1.050016522,-2.66674304,-9.836389542,126.6656265,-36.26350784,-15.64474487
1820,-0.167327985,-4.094581604,-9.905100822,103.0555573,-32.3299675,-7.721626282
1821,-0.295036852,-5.72644949,-9.403294563,87.4087677,-32.1756134,-5.224959373
1822,0.090099096,-6.08910799,-8.699209213,79.41975403,-28.21737099,-4.411252022
1823,0.191569775,-4.981361866,-8.088386536,70.89902496,-25.92024231,-2.313635111
1824,0.164548054,-3.584466219,-8.197125435,57.32765579,-30.92333984,2.415018797
1825,-0.106999435,-2.693063021,-8.270337105,31.94463539,-35.75632858,4.883625984
1826,0.099315986,-3.045946836,-8.045711517,-0.776593089,-33.22957993,9.310659409
1827,0.822930217,-3.613393307,-7.735698223,-23.71247482,-26.19578362,19.73734283
1828,0.903691769,-3.795196772,-7.652558804,-37.67469025,-16.87313652,26.2821846
1829,0.527048171,-3.857132673,-7.711766243,-55.77035522,-2.787277937,30.70685768
1830,-0.169706434,-3.950455427,-7.776893139,-71.74235535,5.807364941,32.2766571
1831,-0.204074904,-3.764936447,-7.863099575,-79.64061737,13.60830879,33.28815842
1832,-0.142892584,-3.957593441,-8.302312851,-82.88040924,17.13544655,32.78195572
1833,-0.260887951,-3.534195185,-9.300359726,-86.83480835,17.11649132,31.47970772
1834,-0.4615812,-2.55730176,-10.75949478,-93.56931305,23.02886772,30.14354706
1835,-0.363978148,-2.607522726,-11.06638145,-92.1525116,27.0767746,29.33586693
1836,-0.116634168,-3.589978218,-10.73964787,-86.10844421,27.82740021,30.98726463
1837,0.299714804,-4.105013371,-10.4311161,-74.84621429,21.63655472,31.80932426
1838,0.35650748,-4.301826477,-10.21632576,-62.01327515,12.26464748,31.77687454
1839,0.285702258,-4.309863567,-10.7322731,-54.14300156,-2.936745405,27.60108757
1840,0.201767743,-4.218937874,-11.08437157,-45.35114288,-8.196386337,19.91612434
1841,-0.195705459,-3.563358545,-10.92653656,-33.36682129,-9.373418808,6.399047852
1842,-0.327825189,-2.137477636,-10.4903574,-21.58045578,-7.685565472,-3.611320496
1843,-0.707149446,-1.220434785,-10.17630672,-23.85986137,-6.236041069,-8.034031868
1844,-1.707154393,-0.834540367,-10.05996513,-40.02203751,-7.240724564,-13.38840008
1845,-1.788379669,-0.636401653,-10.08916473,-55.40680313,-8.320933342,-20.02449417
1846,-1.401771069,-0.869500399,-10.56797791,-54.47102737,-5.367063046,-26.69883919
1847,-0.775133908,-0.320085764,-10.42127895,-50.20880127,1.981292963,-26.19151878
1848,-0.618316054,-0.819965363,-10.32968807,-58.26802444,12.76308155,-19.01579857
1849,-0.361001581,-1.574349642,-9.98905468,-62.49425888,23.14250565,-10.67283535
1850,-0.188817799,-2.01784277,-9.536756516,-61.42081833,29.50964546,-9.558409691
1851,0.205649063,-1.203040957,-9.619291306,-50.7554245,22.00853539,-11.05261326
1852,-0.075583369,-1.007000804,-9.431111336,-44.1888504,20.74733162,-11.14805889
1853,0.150373191,-1.60586679,-8.698915482,-40.51044846,23.95478249,-9.177705765
1854,0.081056185,-1.347449303,-8.742139816,-31.87290382,20.39298058,-12.0176487
1855,-0.139231578,-0.670964181,-9.188930511,-15.62069035,10.02423191,-18.30912018
1856,-0.155566782,-0.712720096,-9.696840286,-1.160474896,-3.323496342,-21.14778709
1857,-0.275933564,-0.530266047,-10.31269455,9.855692863,-12.59300041,-23.95814323
1858,0.226677358,-0.457392156,-10.37152863,13.28714752,-14.53725052,-22.83204079
1859,1.001693606,-0.857269943,-10.49085236,13.40783405,-21.21407509,-14.53524876
1860,0.175414175,-1.386182785,-10.29598141,18.35797882,-24.25812721,-15.90073395
1861,-0.50945127,-1.75085938,-9.878791809,22.94456673,-19.53887749,-17.30965233
1862,0.00854657,-2.13633728,-9.969796181,33.83941269,-13.45492172,-13.16864681
1863,-0.006328948,-1.445213914,-9.847765923,44.20539093,-16.05690765,-8.77934742
1864,-0.343972504,-1.033439994,-10.01836014,37.35707855,-23.22529793,-2.970267296
1865,-0.713317573,-0.974747956,-9.795675278,27.6507225,-35.73796844,-3.612268209
1866,-0.995459497,-0.735922277,-9.321053505,21.6315155,-45.81046677,-1.760139823
1867,-1.17515862,-0.608014882,-8.945493698,18.50275993,-50.00534439,2.248651266
1868,-1.045296669,-0.680642426,-9.03983593,18.45131493,-52.98512268,8.053275108
1869,-1.35809958,-0.119704336,-9.064918518,12.84076595,-56.55405426,13.56425858
1870,-1.562258482,0.127579182,-8.161504745,-10.58331966,-54.97955322,19.53928757
1871,-1.209052801,0.779204428,-7.588412762,-38.16150665,-42.22801208,30.49950027
1872,-1.316579819,0.821528137,-7.397266388,-45.45633316,-22.88036156,43.94326019
1873,-1.419001222,0.804448724,-8.310729027,-79.11136627,10.04779243,51.98467636
1874,-1.364433765,1.275153518,-10.36639786,-92.84880829,29.90019798,41.97547913
1875,-0.603566349,1.36895597,-9.615715981,-93.70298767,24.62244606,30.28211212
1876,-0.290972501,1.446227074,-9.477063179,-92.95285034,11.50612259,37.12072372
1877,-0.371997654,3.009547472,-10.90030289,-121.3791962,-0.645979226,52.33555222
1878,-1.736469388,4.320942402,-12.36457825,-146.7425232,-9.621055603,63.08362198
1879,-2.17155242,3.808364391,-12.19071007,-166.174881,-11.31001186,63.88441849
1880,-0.739863336,3.640212536,-12.38107681,-169.0376282,-8.519284248,54.15050888
1881,-0.439704031,3.841656208,-12.59282494,-167.6191711,-8.970041275,47.13282013
1882,-0.461757749,3.320308685,-12.68453693,-168.7971954,-8.800442696,43.05714798
1883,-0.707530618,2.116103649,-12.13637447,-174.3697968,-0.010239842,43.75349426
1884,-0.937120318,2.082737446,-11.45641899,-175.3175507,13.48560047,44.74354935
1885,-0.880671918,2.058395863,-10.61008263,-173.4421692,17.72461891,40.41287231
1886,-0.765688658,2.859764099,-9.897508621,-161.8714142,15.43435478,33.65265656
1887,-1.442666292,4.322468758,-9.078463554,-151.8609314,10.27562618,30.83535767
1888,-1.922011614,5.294914722,-8.765349388,-134.7249756,2.791983604,29.07147026
1889,-1.569600821,5.77464962,-7.983195782,-119.529213,-0.826469421,26.9097538
1890,-1.110259652,5.945600986,-7.283414364,-108.3709106,-0.920489132,18.81207466
1891,-1.086117148,5.986697674,-6.446472168,-94.41007996,0.751461983,8.264775276
1892,-1.371247768,5.977583408,-6.676981449,-81.69907379,-6.935974121,-0.262670845
1893,-0.927995205,5.765379429,-7.467218399,-69.48148346,-21.97542191,-2.031553745
1894,-0.765751779,5.636811256,-7.635813713,-55.61526489,-28.72339058,-4.669368744
1895,0.630383372,4.847338676,-7.74864006,-28.73030663,-23.12072563,-12.89754105
1896,0.649439812,2.704901934,-6.786699772,4.095649719,-16.45611382,-24.24419212
1897,-0.036931265,2.130570412,-6.786612511,49.89944839,-8.107942581,-35.79841995
1898,-0.363443166,3.126463652,-7.691322327,88.71942139,10.79505444,-39.74497223
1899,-0.905686796,4.568052292,-8.67414856,112.3791046,29.78874969,-40.61397934
1900,-1.084838152,4.971991062,-9.391116142,132.7637634,29.9121685,-40.95082474
1901,-0.612155616,4.785790443,-10.37154961,154.3054352,22.18606186,-39.12968063
1902,-0.589445949,5.107646942,-10.7145443,168.1027832,13.41540432,-32.81222153
1903,-0.719958365,4.958603382,-10.78224468,169.8157196,6.408297539,-24.5752182
1904,-0.432634562,4.516546726,-10.30412102,162.3997498,3.745877743,-19.40437698
1905,-0.204787523,3.834279537,-9.987037659,148.8752441,1.249409318,-15.12694645
1906,-0.072045818,3.035203934,-9.525158882,136.9871216,3.25894618,-10.45966148
1907,-0.767673612,2.381184101,-9.386468887,119.0532837,5.234767914,-4.303014755
1908,-1.136162043,2.950803757,-9.220258713,98.62923431,5.597860813,0.41517058
1909,-0.969393611,2.684521198,-9.199114799,77.78805542,4.089001656,4.296162128
1910,-0.892704844,1.808153749,-9.489938736,66.86742401,3.007721901,7.815532207
1911,-1.239996552,1.347937346,-9.872513771,66.17253113,0.025139261,10.19907379
1912,-1.216414452,1.700246572,-10.23365211,69.2681427,-5.606608868,11.51760483
1913,-1.498144627,1.89721787,-10.43128777,63.80630112,-10.96382999,11.79058933
1914,-1.545410991,2.279875755,-10.03625298,54.97783661,-12.05369282,9.266313553
1915,-1.216669917,1.764021397,-9.977732658,50.68695831,-7.939813137,6.521220684
1916,-0.790732384,1.198123932,-9.930697441,47.84394836,-6.26053381,9.60741806
1917,-0.994117856,1.157005787,-9.696728706,43.5214653,0.32270956,14.21353817
1918,-1.108688354,1.098969221,-9.379620552,38.06108856,6.207404137,16.64883232
1919,-0.666566491,0.999247015,-9.391068459,30.33005333,8.848201752,15.81199265
1920,-0.673357487,1.295889378,-9.334421158,19.99677658,8.354575157,15.03466511
1921,-1.039865375,1.64166081,-9.363546371,7.660561085,8.191462517,13.83563519
1922,-1.172527909,1.146243215,-9.737691879,-5.706201553,8.298483849,13.71246338
1923,-1.402114868,0.409744471,-9.768690109,-15.67350006,5.163074017,14.11700726
1924,-1.746224999,0.046072725,-9.345540047,-19.05799675,-0.024575431,13.50756741
1925,-1.352023244,0.016380079,-9.33878231,-23.40005302,-5.90650034,9.743963242
1926,-1.092211246,0.655737519,-9.716083527,-30.68279457,-9.63538456,0.453884274
1927,-0.953840077,1.203979492,-10.14131165,-43.41437149,-10.14491081,-6.721429348
1928,-1.102328658,1.446216583,-9.781801224,-53.45561981,-10.98976326,-6.995357037
1929,-0.930679023,1.373923182,-9.394900322,-50.01607895,-14.67646694,-1.208835006
1930,-1.425512671,1.278170109,-9.187821388,-35.854496,-18.02000046,0.481329352
1931,-1.602131844,1.149838686,-9.145475388,-17.67134476,-21.22607613,-2.684480906
1932,-1.527674079,1.135313272,-9.125479698,2.485538483,-22.53336716,-9.305799484
1933,-1.611123681,1.278781295,-9.059030533,20.11371803,-21.38832283,-16.66601372
1934,-1.651757002,1.368554592,-9.426442146,33.7004509,-13.2380991,-25.98382187
1935,-1.707733989,1.200768828,-9.480026245,44.03300858,-3.143176794,-30.23219299
1936,-1.395420551,0.655714035,-9.203248024,47.1632576,3.195706129,-30.038414
1937,-1.447348595,0.552996278,-9.428842545,62.79794312,17.81128311,-27.45651245
1938,-2.413528442,-0.058728583,-9.783722878,94.61854553,38.8026123,-32.82238388
1939,-2.223435163,-1.415966153,-10.79661083,105.0147858,35.45990372,-41.47373581
1940,-1.660306692,-2.177990913,-11.5182848,110.129158,28.61353874,-51.22439194
1941,-2.36359334,-1.516155481,-11.71658707,143.11203,29.63638878,-61.50824356
1942,-2.460860252,0.003731698,-11.15982437,173.1787415,36.85953903,-62.94007874
1943,-1.432211518,-0.333808959,-10.18969727,192.958786,48.20298767,-56.69870377
1944,-0.307944566,-0.764369249,-10.40330791,193.0883484,36.27810669,-49.43964005
1945,-0.766576231,-0.560257077,-10.77776146,188.8167419,18.51573372,-42.09266281
1946,-1.338721275,-0.917874455,-10.9217701,174.9547729,11.45834541,-37.73945999
1947,-0.857058108,-1.598141313,-10.94465542,156.3981781,7.878035069,-32.3539238
1948,0.051800489,-2.538212776,-10.9425087,137.5860138,4.542053699,-25.29013824
1949,1.112956643,-3.731809616,-10.68213272,128.8226471,-0.181989208,-23.29921532
1950,0.060849056,-4.594440937,-9.949493408,120.0797119,-7.622271061,-25.07228661
1951,-0.352705598,-4.469097614,-8.783786774,125.7628555,-9.203760147,-28.45069695
1952,-0.094887972,-4.095425129,-8.542845726,112.2870407,-13.78078461,-22.88425827
1953,-0.128689826,-4.097520828,-8.586130142,93.85401154,-25.18083763,-17.58529663
1954,-0.711683333,-4.835784435,-8.370154381,77.54585266,-27.09438515,-16.76006126
1955,-0.529039979,-6.249345303,-7.272701263,60.85951233,-24.01997566,-19.30662537
1956,-0.039213955,-6.575805187,-6.73481226,40.88660049,-19.56718254,-14.49772358
1957,-0.016124455,-6.149601936,-7.001973629,31.65151405,-21.90423584,-0.89566803
1958,-0.611606658,-6.060919762,-7.567522526,34.97882843,-26.33594704,5.109364986
1959,-1.054506421,-6.234949589,-7.522306919,39.82093048,-29.5628109,2.386599064
1960,-0.59776634,-5.358835697,-7.091583729,41.0435257,-21.25351524,-1.898837447
1961,0.656440079,-3.76787281,-6.969326496,30.47208977,-15.31385994,3.877593517
1962,0.694467783,-2.845174789,-7.149215698,5.374332905,-9.715402603,17.68824387
1963,-0.252397865,-3.100759983,-7.493484974,-19.68066025,-1.887434483,30.62026024
1964,-1.162715435,-3.549534082,-7.870587349,-45.14387512,9.211503029,39.4029007
1965,-1.455546379,-4.629488468,-7.754524708,-72.54534912,17.86898232,40.85464859
1966,-1.337348104,-5.333495617,-8.394518852,-94.72227478,16.73450851,39.23497772
1967,-1.042976141,-4.877405167,-9.264622688,-106.0614395,12.16649914,36.23298645
1968,-0.88282001,-4.11759758,-10.41819191,-111.4769897,9.719191551,35.91631317
1969,-0.997304261,-3.990299702,-10.23317909,-106.6998367,13.80041409,37.57151031
1970,-0.794771373,-4.094684124,-10.2222662,-97.94660187,17.18450737,37.81896973
1971,-0.591614783,-4.199076653,-10.34304142,-86.45855713,24.2756176,36.69493484
1972,-0.905615926,-4.027794361,-10.31140614,-73.78164673,33.79333878,31.08068657
1973,-1.003515005,-3.742437124,-10.41035652,-64.97947693,36.79722977,22.32125092
1974,-0.987401426,-3.427049637,-10.3041029,-53.24223328,32.97159958,15.59972572
1975,-1.309189677,-3.130072594,-10.03750324,-45.33559418,26.86148262,9.425755501
1976,-1.606063366,-2.359865189,-9.61410141,-44.68957138,20.36717415,3.12518549
1977,-1.48436141,-1.946062207,-9.405121803,-53.66065979,13.17277908,0.642527103
1978,-1.568770409,-1.96879375,-9.839922905,-67.98841858,7.810607433,-1.005936146
1979,-1.599975944,-2.201607466,-10.46108818,-81.03984833,4.701851845,-2.913934708
1980,-1.560297132,-2.465334177,-10.78120995,-88.57099152,5.866578579,-3.247332096
1981,-1.254418612,-3.42798686,-10.38628292,-95.91578674,14.60524082,-1.655614853
1982,-1.427543998,-3.149492264,-9.716715813,-87.70249176,23.17736053,-7.085748196
1983,-0.998344958,-2.915156603,-10.22729301,-80.59804535,23.43546104,-10.60554981
1984,-0.363808066,-2.367072105,-10.51711178,-66.08032227,12.83976746,-12.2275238
1985,-0.502003431,-2.281327486,-10.55748558,-49.17525482,11.13744831,-17.90830231
1986,-0.382754475,-2.393630505,-10.21457577,-40.10932922,19.32363892,-20.8008194
1987,-0.177563593,-2.653966188,-9.63067627,-38.09756088,34.37418747,-17.2601757
1988,0.168053478,-2.671654224,-9.062551498,-27.48385048,30.77240753,-15.15288925
1989,-0.644658923,-2.73550272,-8.986419678,-5.067833424,8.461976051,-20.11758614
1990,-1.087473392,-1.421205044,-9.363376617,5.837596416,-15.89345074,-26.55843544
1991,-0.910597682,-0.200258911,-10.30988884,3.955717325,-29.47628021,-25.93074608
1992,-0.353498042,0.978731632,-10.87101269,-2.592232466,-34.16941452,-23.90644455
1993,0.635152459,0.67770189,-10.82062626,-10.01459408,-35.34167862,-12.9640274
1994,0.16118221,0.121658772,-10.17141151,-8.664824486,-37.80163193,-7.467666149
1995,-0.392675519,-0.556945622,-9.523564339,-5.845950127,-38.07082367,-0.053902205
1996,-1.419724822,-1.159495473,-9.329811096,-2.773254871,-37.55060959,6.151439667
1997,-1.175261378,-1.247563481,-9.284337044,5.539989471,-39.34237671,10.89413834
1998,-1.130921602,-1.403944969,-9.037762642,10.57147789,-37.81282425,12.32683086
1999,-1.202673078,-1.249181271,-9.096232414,17.62564278,-33.58829498,14.86233616
2000,-1.34012723,-0.463254839,-9.548360825,28.26370621,-20.27311134,15.34793758
2001,-2.124685287,0.976722181,-10.58963394,36.06390762,-20.09433937,13.4596138
2002,-2.208524942,1.413866758,-11.49553967,22.0046978,-35.06399536,16.35964394
2003,-2.114911318,0.868347108,-11.18037891,-9.264502525,-28.13020325,21.83699799
2004,-1.579753995,0.756750166,-10.18403816,-29.83820152,-18.08551598,25.88975143
2005,-1.65874052,0.917516589,-9.04155159,-43.14945984,-0.923423886,30.4432869
2006,-1.978416085,1.850147843,-9.44391346,-47.01231766,10.48988342,32.8398819
2007,-1.888773203,2.806090593,-9.879265785,-53.23611832,6.482414722,36.89033127
2008,-2.039315701,2.58239603,-9.926926613,-77.10956573,7.01128006,39.85824585
2009,-1.64526701,1.79626596,-10.08824158,-92.14979553,8.357400894,44.41613388
2010,-1.487951159,2.27507329,-10.13413429,-105.809288,11.38720512,48.38596725
2011,-1.296796441,3.021842003,-10.31945038,-123.1909485,12.28235531,53.88290024
2012,-1.674263477,3.19558692,-11.24420738,-139.2832794,10.56299973,59.92531586
2013,-1.786997437,2.847422123,-11.78877354,-147.8274689,10.19059944,60.51317596
2014,-1.281110406,2.413786888,-11.65268993,-154.8607635,8.258255959,54.75377655
2015,-0.395964056,2.090491772,-11.72878361,-161.1203156,10.5021162,51.54827881
2016,-0.664320827,2.931483269,-11.40977001,-166.4041901,6.934370041,52.00217056
2017,-1.184342861,3.386966944,-11.23426437,-169.732254,3.387102365,50.00723267
2018,-1.552951813,3.287126064,-10.54489422,-170.8567505,4.589131355,42.12846375
2019,-1.300026417,3.232926369,-9.30824852,-167.5636139,6.464245796,31.73711014
2020,-0.896850467,3.012250185,-8.446304321,-149.841507,5.406913757,22.24318314
2021,-0.501477003,3.052650213,-7.793165684,-120.4764404,-2.302886963,15.1674633
2022,-0.755785346,3.323511362,-7.500576973,-89.29910278,-5.920897484,11.47270584
2023,-1.068012953,4.354733467,-7.098174095,-60.7713089,-0.353735328,11.71554661
2024,-1.036524534,5.581535816,-6.994678497,-41.18013382,9.146240234,10.01844788
2025,-0.756934524,5.99576664,-7.776427269,-31.49102783,13.97801018,5.047822952
2026,-0.383303761,6.061648846,-7.769451618,-28.10203934,18.14546585,-2.037517548
2027,0.210951164,5.625384808,-6.917274475,-21.48701668,15.13878536,-9.822067261
2028,0.54647243,4.678368568,-6.570651531,-2.305228472,0.90018487,-17.66304398
2029,0.593773544,2.762059212,-6.536386013,37.03574371,-2.872668505,-22.73963547
2030,-0.286064446,2.079595089,-7.138830185,76.98255157,2.731069326,-26.82147217
2031,-0.626804054,3.301969767,-7.922487736,104.6717148,9.465616226,-28.72455978
2032,-0.505305588,4.570690155,-8.197194099,109.6896515,8.806641579,-27.73825073
2033,-0.248871952,5.197891235,-9.000481606,107.1678619,6.549141884,-25.57422066
2034,0.213118061,4.683857918,-10.09413052,100.3919754,-1.025423408,-22.40829086
2035,-0.085713699,3.490391731,-10.73883057,96.33566284,-3.618911266,-22.85194778
2036,-0.470969617,2.901513338,-10.76892567,92.1734314,-0.506193459,-23.23817444
2037,-0.923081636,3.365053654,-10.28538609,83.70101166,3.991538286,-22.60048485
2038,-1.189394712,2.828240156,-10.21772194,63.43153763,6.53025198,-19.41317558
2039,-1.25576818,2.291897535,-10.42023373,45.28013992,4.758161068,-15.91763496
2040,-1.557081103,1.735042453,-10.55530167,40.60716248,-0.962985814,-9.981592178
2041,-1.548935175,1.372088194,-9.945801735,48.42867661,-3.806917906,-4.773677349
2042,-0.842676163,1.494227409,-9.954572678,51.14641571,-10.43319607,-2.752155542
2043,-0.776972055,2.307812929,-10.24940014,47.70650482,-14.20599747,-3.552480936
2044,-1.49907124,3.397452354,-10.18552113,37.90476227,-14.60501766,-2.307634592
2045,-1.434674859,3.076943874,-10.24308205,32.59187317,-13.8939867,1.246767879
2046,-0.966244817,1.790472031,-10.25943851,35.38111877,-10.2793541,4.896646976
2047,-0.880286753,0.724963248,-10.20967293,39.31221771,-3.497158766,4.15321207
2048,-1.156178951,0.6069206,-9.735074043,51.69934845,6.082485199,3.326711893
2049,-1.10223496,1.6407336,-9.118062019,65.20371246,20.73381996,1.967094541
2050,-0.815266192,3.160119057,-9.092295647,75.36964417,22.07108116,0.661705613
2051,-1.089799285,2.549063683,-9.326851845,75.39231873,12.82638741,3.576362133
2052,-1.151088715,1.916453719,-9.828561783,74.65582275,3.095509052,1.103301406
2053,-1.124135733,1.876992941,-9.77567482,74.26400757,0.495717853,1.740032673
2054,-0.718466938,1.802420497,-9.380813599,65.61431885,0.438470483,2.363909006
2055,-0.692097664,1.087323189,-9.038209915,57.21651459,6.498157978,1.857262492
2056,-0.554946065,0.93975848,-9.022361755,46.11187363,13.11044025,0.372232348
2057,-1.15588522,0.977999568,-8.940018654,28.74732018,13.36246204,-0.241368532
2058,-0.886093736,1.084806085,-8.82349968,10.26681709,7.826130867,-2.032784939
2059,-0.451160491,1.461448193,-9.266965866,0.248686552,1.788381457,-4.952517033
2060,-0.146760792,2.451617956,-9.924482346,-11.9061718,-3.235867023,-12.55650425
2061,-0.830600441,2.444828033,-10.68430901,-29.24604034,-1.823958278,-18.19156647
2062,-1.048354864,1.072715402,-10.54176426,-45.46720886,3.164519072,-14.9197216
2063,-0.547197104,-0.427701265,-9.761066437,-39.72588348,5.756923676,-9.006625175
2064,-0.558276653,-1.520323873,-9.767395973,-23.18766594,5.888307571,-3.33728385
2065,-0.840693772,-1.740474939,-9.844286919,-6.887263775,6.412781239,-3.134476423
2066,-0.998796821,-1.178969502,-9.63399601,12.39492416,3.137923479,-6.252501011
2067,-1.389108539,-0.213836476,-10.21076679,22.72047043,3.987406015,-8.529769897
2068,-1.962460518,0.581801832,-10.44083405,30.37112617,6.42380476,-10.97264481
2069,-1.589075446,0.835740387,-9.763418198,28.81099129,14.09912205,-14.06659985
2070,-1.276326656,1.114032507,-9.66299057,31.36490822,31.81800652,-17.48727036
2071,-1.208245993,1.204879522,-10.09533596,64.55136108,60.65566635,-21.06537628
2072,-1.169703245,0.245987818,-9.510109901,114.8791504,72.10559082,-25.99354172
2073,-1.255313277,-1.737400889,-9.996835709,152.8871918,80.80491638,-32.84078979
2074,-0.666816413,-3.030672073,-10.15247536,157.9838257,65.54701996,-36.65528107
2075,0.398988575,-3.614398718,-9.462193489,158.7834625,44.17040634,-36.22557068
2076,0.335410118,-2.497594833,-9.973186493,161.8868713,30.83978653,-37.05285645
2077,-0.531851351,-0.847000122,-10.7665081,146.9680481,13.84426689,-34.31083298
2078,-0.401112437,-1.625986457,-10.97519875,141.0110321,9.607851028,-38.47572327
2079,0.329563171,-3.436255455,-10.24282265,136.7910309,9.135398865,-39.52320862
2080,0.945678949,-3.568242788,-9.947545052,130.082489,-1.312613606,-36.16336441
2081,1.024358869,-3.108132839,-10.60487175,122.4374695,-12.78560925,-29.52874565
2082,1.12921524,-3.609740257,-10.56850433,120.5702438,-24.64798737,-34.10746384
2083,0.930201888,-3.967195988,-10.17906475,132.0686035,-35.70241165,-37.55085754
2084,0.777051568,-4.058153629,-9.993221283,130.4462433,-38.6562767,-35.06702042
2085,0.397669256,-3.912147045,-9.640927315,118.8664398,-39.09507751,-29.95410156
2086,0.283020496,-4.291069031,-9.511134148,100.5181351,-32.28108215,-23.69389153
2087,0.639651179,-5.080749035,-8.999470711,86.87595367,-29.06731224,-18.06301498
2088,0.885860205,-5.711696625,-8.192878723,78.63883972,-26.02405739,-15.22819233
2089,0.343454123,-5.326582909,-7.759304523,65.83660889,-19.91132736,-8.315673828
2090,-0.219965547,-4.104205608,-8.015844345,46.38246536,-17.44164467,-0.565674126
2091,-0.655805886,-3.554086447,-8.300723076,23.5310173,-22.76101494,3.506359577
2092,-0.830548346,-3.945039034,-8.36835289,0.776854217,-25.75759888,4.950696468
2093,-0.225800812,-4.232049465,-8.115310669,-14.76070309,-23.68451309,6.70062685
2094,0.526966989,-4.00441885,-8.261393547,-28.95809364,-17.22132874,12.67986107
2095,0.733867466,-3.406107187,-7.981358528,-45.22334671,-9.507437706,17.45568275
2096,0.225185782,-3.741360664,-7.762476444,-64.2984848,-0.107446991,20.74074745
2097,-0.342131287,-4.392266273,-7.899571419,-72.51857758,5.289034843,23.2927494
2098,-0.332782388,-4.696443558,-8.326312065,-80.93521881,5.735105038,25.71137047
2099,-0.237296402,-4.442698002,-9.018047333,-88.83083344,5.472831726,25.73678207
2100,0.113817252,-3.621325016,-9.842153549,-93.99343872,5.640563965,22.46944618
2101,0.313478857,-2.871912241,-9.820523262,-99.78391266,10.79596519,20.26573944
2102,0.258983135,-4.041736603,-9.420108795,-101.4284134,13.93032742,19.50989532
2103,-0.202716887,-4.924224854,-9.620963097,-94.47655487,12.78703594,15.9638052
2104,-0.318500698,-4.675039768,-10.06142235,-81.74125671,7.791712761,12.38703632
2105,0.07855776,-4.039559364,-9.904806137,-67.32562256,2.177031994,10.84946728
2106,0.075292811,-3.441853762,-9.91723156,-50.58310318,-1.803240418,7.636322975
2107,-0.516587198,-2.57848382,-9.923676491,-39.88583374,0.102611452,4.091927052
2108,-0.592741847,-2.013319731,-9.669887543,-37.01621628,1.245807648,2.778376102
2109,-0.742635608,-1.931147099,-10.02677631,-45.30276108,-0.45961684,5.736787319
2110,-0.999271452,-1.867432833,-10.23780155,-59.13446045,-7.028207302,9.381258011
2111,-1.60719955,-1.75722754,-10.98271465,-68.01816559,-12.37660599,7.035286903
2112,-1.893190622,-1.819305778,-11.10088921,-74.27947235,-3.89581275,2.589686632
2113,-1.625769377,-2.226025581,-10.97681236,-80.63274384,-1.449513555,-1.009810328
2114,-1.158486605,-1.940412879,-10.80913734,-77.81468201,-3.166303396,-5.318712711
2115,-0.964482307,-1.899177074,-10.95429993,-69.65661621,-4.941319942,-9.746372223
2116,-1.134625077,-1.589160323,-10.94059753,-56.99685287,-6.25537014,-16.22277641
2117,-1.248652697,-1.077917814,-10.78153896,-45.36760712,-5.078229904,-20.6401825
2118,-0.96625334,-1.178056598,-10.44685268,-35.01449585,-3.230785131,-19.29493332
2119,-0.850274205,-1.384670019,-10.06742764,-26.19303131,-0.91027844,-16.5427227
2120,-0.611540675,-1.689090729,-9.908115387,-17.10970688,2.10962534,-13.21667194
2121,-0.861943364,-1.707913637,-9.809545517,-0.653457403,2.825191975,-17.15084076
2122,0.509752691,-1.764117837,-10.15306091,22.33194542,-5.563521385,-13.59543991
2123,-1.011324763,-0.913053036,-10.13390255,40.09745789,-13.34288025,-22.12340736
2124,-1.173294306,-0.005585991,-9.979063988,47.72187042,-15.24012756,-22.51087189
2125,-0.132840395,0.160523385,-10.24378681,44.70689392,-17.89246559,-17.9545002
2126,-0.295355707,-0.295142293,-10.18248272,45.08257675,-18.54824257,-16.94870186
2127,-0.225703284,-0.818752408,-9.881703377,49.37359619,-15.63441944,-14.20077324
2128,-0.120583087,-0.757344604,-9.376558304,47.58973312,-15.63284016,-8.724879265
2129,-0.919464648,-0.64442414,-9.025481224,39.95749283,-13.72480392,-4.59644556
2130,-1.286834478,-1.050276518,-8.751362801,23.60180855,-11.71179485,-1.486923337
2131,-1.308705568,-2.033139706,-9.099980354,15.58948517,-11.57748795,-1.840306997
2132,-1.114304066,-2.587259769,-9.42677784,25.96443939,-17.42842102,-3.19577837
2133,-1.542879105,-2.382270813,-10.01373005,35.3354187,-21.71632767,-2.19136548
2134,-2.068240643,-1.317222953,-10.27507782,29.37104416,-22.88125992,-2.064438343
2135,-1.768712997,-0.244103611,-10.33313465,13.60868454,-20.32833672,-1.906376481
2136,-1.262851357,0.113265857,-9.670654297,-1.864138365,-13.11903095,2.35684371
2137,-0.900618732,0.500715852,-8.770519257,-18.13934135,0.807249367,7.608660221
2138,-1.426516175,0.695669293,-8.760092735,-34.78224564,7.570938587,19.09725571
2139,-1.466580272,0.626388729,-9.758517265,-54.13474655,4.493198395,33.92116547
2140,-1.365087271,0.485221803,-9.762909889,-79.40965271,12.02283382,41.9648056
2141,-1.356765151,0.040626921,-9.813239098,-97.50898743,20.80981445,46.72594833
2142,-1.073725343,0.513975501,-9.498304367,-104.510376,23.06237221,48.85569763
2143,-0.928693593,0.671696961,-10.08571053,-123.1415482,19.299757,51.21661758
2144,-0.955343306,-0.173691481,-10.84920788,-145.4267731,13.93088436,52.97580338
2145,-1.505959868,-0.081409872,-11.09113216,-156.7106323,4.846748352,49.32432938
2146,-0.799444199,0.479231775,-11.85580444,-154.5797424,2.182647943,49.5549469
2147,-0.460584998,1.275909185,-12.1156826,-149.9220276,-4.963170052,55.21076965
2148,-0.60118413,1.909172297,-12.01227951,-155.4600067,-9.792503357,58.22367477
2149,-0.758507133,2.258382797,-11.70135307,-160.4361877,-10.48030853,54.41844177
2150,-1.30766356,2.598160505,-10.73109055,-162.8108521,-8.804824829,42.83166504
2151,-1.397866249,3.053910732,-9.945890427,-159.6681519,-9.418787956,32.47996902
2152,-1.307944536,3.630237579,-9.779887199,-154.0367126,-12.15035057,25.73338127
2153,-1.338328004,3.882372856,-9.471492767,-147.0609894,-11.4718504,23.60407257
2154,-1.511870503,4.000728607,-8.533961296,-136.3849792,-8.66587162,25.11757278
2155,-1.533349872,4.333544254,-7.670945168,-124.5662308,-12.15689182,26.76681709
2156,-1.203466654,4.27005434,-7.504297733,-113.5754852,-17.85998917,25.99729156
2157,-0.928134501,4.410112381,-8.091159821,-100.6975708,-22.30556488,22.58378601
2158,-0.696763992,4.648337841,-8.749340057,-80.76347351,-22.56886101,18.00949669
2159,-0.244452193,4.889872074,-8.187893867,-59.13524628,-18.05444527,12.58569241
2160,0.257875323,4.436646938,-7.965116501,-39.85009384,-15.66058445,5.359300137
2161,0.643723667,3.089980602,-7.600348473,-15.39443016,-3.930317163,-0.648200393
2162,0.366654932,2.434797764,-7.062785149,15.3849535,10.40393162,-6.18968153
2163,-0.47597149,3.327097178,-7.158452034,44.99207306,12.14412212,-15.35793495
2164,-0.463192135,5.408144951,-7.290112972,61.08568192,7.211031437,-22.14002037
2165,-0.402257651,5.993120193,-8.061263084,58.12481308,-0.324498028,-20.79704094
2166,-0.418213069,4.992371559,-9.648064613,61.61055374,0.694191039,-17.94449806
2167,-0.203491136,4.211173058,-10.45143509,75.3723526,-0.460378557,-14.1657095
2168,-0.126899973,3.439447641,-10.46945953,83.88632965,-2.555347443,-10.30599594
2169,-0.554193854,3.4472332,-9.926700592,93.98948669,-6.511672497,-12.09572601
2170,-0.693075657,3.8188622,-10.35053635,92.22554779,-13.70195961,-10.80544376
2171,-1.074040174,3.974358082,-10.33621788,87.26742554,-18.95710564,-5.522901058
2172,-1.359555602,3.388214827,-10.27254581,79.43751526,-17.71755028,-1.07536149
2173,-1.634857416,3.437564373,-9.758796692,72.89519501,-15.72575092,1.016235828
2174,-1.561247468,3.156916618,-9.315155983,67.26197815,-12.92116642,1.984062791
2175,-1.673570991,2.805907965,-9.18060112,66.29953766,-11.37664413,0.729819834
2176,-1.480526567,2.63159132,-9.175925255,66.97575378,-10.00621605,-1.913549066
2177,-1.315245152,2.779248714,-9.328502655,66.7648468,-9.820571899,-2.989465714
2178,-1.423242569,2.611133575,-9.573718071,64.28643036,-12.31111526,-3.70940876
2179,-1.570649505,2.359478235,-9.503890991,62.08010101,-11.52761269,-5.734386921
2180,-1.51964891,2.093713045,-9.386043549,57.47741699,-8.481856346,-7.13783884
2181,-1.485761046,1.787205338,-9.692728043,55.66587448,-6.087930679,-7.233739853
2182,-1.694163442,1.621724963,-9.789179802,55.95684433,-6.154500484,-7.39145422
2183,-1.997756124,1.797440529,-9.89444828,54.40631866,-14.95005608,-9.984540939
2184,-1.741678476,0.867272437,-9.899272919,55.29789734,-13.2818985,-10.43868923
2185,-1.889965057,0.518676817,-9.695112228,60.27469254,-9.564645767,-10.24070263
2186,-1.553165436,1.208169699,-9.597284317,61.24850082,-5.006309509,-15.51966381
2187,-1.778664589,2.075735569,-9.934179306,57.67805862,-0.522332668,-16.83926201
2188,-2.302554131,2.187321186,-9.65018177,49.21317673,6.876663208,-11.50756454
2189,-2.056729555,0.978455901,-9.164194107,43.81481934,9.738521576,-10.28987026
2190,-1.295049191,-0.06858854,-9.003482819,44.34552002,10.44266033,-9.615202904
2191,-1.665399432,0.363464445,-9.159116745,37.14780426,5.819658279,-8.934492111
2192,-1.970770717,0.880058587,-9.551384926,20.5223732,-1.228150129,-6.807756901
2193,-1.615312338,0.964596093,-9.83399868,6.448191166,-6.002024174,-5.939708233
2194,-1.319270492,1.175436258,-9.806851387,-6.725455761,-5.849629879,-6.582268238
2195,-1.705572486,1.603179812,-9.855716705,-19.68309021,-1.472252369,-8.430901527
2196,-1.447494745,1.842290282,-9.824904442,-28.48756981,3.4334445,-8.986904144
2197,-1.072463274,1.388776541,-9.620838165,-30.17856979,6.839229107,-8.801802635
2198,-1.127038956,0.765027761,-9.248232841,-28.39297485,5.227721691,-7.474416733
2199,-1.587592483,0.506102979,-8.9165411,-27.78911209,-1.209736228,-7.153936386
2200,-1.964437842,0.755092919,-8.811191559,-31.57997131,-3.700671673,-8.254524231
2201,-1.956230402,1.005495667,-8.863815308,-36.69358444,-4.06710577,-9.177824974
2202,-1.601529241,0.989267886,-9.266443253,-40.79072189,-3.967015743,-9.68648243
2203,-1.397141457,1.345498204,-9.614186287,-38.78123093,-1.803739429,-9.022335052
2204,-1.72497046,1.341326356,-10.10560226,-38.41868591,7.836646557,-8.028840065
2205,-2.100059509,0.451778442,-9.886385918,-38.84246445,24.17839813,-7.893381596
2206,-2.13753438,-0.156153232,-9.542411804,-31.953722,36.14032745,-10.4835577
2207,-2.519057035,-0.207975134,-9.594882965,-11.40485668,40.52513123,-14.56525517
2208,-2.822402716,-0.829867303,-9.362135887,11.34079456,34.65558624,-19.40010262
2209,-2.822942734,-1.128068447,-9.987868309,39.36725998,21.42757607,-29.73993111
2210,-2.157676935,-0.808372498,-10.76493168,75.9467926,13.21235943,-43.00738525
2211,-1.737606764,-0.577286839,-10.3229847,104.6930008,16.88682556,-52.72519684
2212,-1.465680242,-1.106048584,-9.386439323,134.0708618,36.82379532,-58.6300087
2213,-0.822321415,-0.792384267,-9.29537487,162.1091156,45.21429062,-59.44653702
2214,-0.771602213,-0.674159229,-10.33052063,179.333313,35.35959625,-58.47602463
2215,-1.199335814,-0.973126292,-11.25703526,183.7197723,23.27931404,-58.24745178
2216,-1.161206841,-0.861922204,-11.65604973,183.9293823,13.17549419,-56.92488098
2217,-0.956394255,-0.717437506,-11.46108723,174.6927032,4.895454407,-51.64477539
2218,-0.561579943,-1.051633716,-11.28929901,168.5485992,0.135665968,-48.62962723
2219,-0.522273719,-1.964233398,-10.84331226,163.4736481,-2.433274746,-46.28343964
2220,-1.19257462,-2.81220603,-10.30979538,171.0554352,1.826289892,-44.26130295
803,16.23668861,-0.034334868,5.650343895,-94.14320374,107.8154373,-14.84768867
804,11.96555901,-0.487921894,7.500826359,-163.9482574,98.97982788,-28.5708847
805,8.13909626,-0.734813571,5.477036476,-209.9247284,51.14796829,-40.9805336
806,6.32404089,0.012049507,-1.024223328,-186.1788025,35.42341232,-33.86735916
807,5.259765148,3.866495848,3.673993111,-171.5343628,73.34061432,4.429696083
808,5.154275894,5.323163033,7.425980091,-206.4059906,93.0430069,42.92757034
809,3.645680904,1.724634886,4.884250164,-247.1817627,103.3106537,54.71097183
810,5.210300446,-1.853588343,3.341443539,-238.625946,97.88188934,48.84557724
811,6.108161449,-3.479370117,2.70092845,-204.4105377,83.44970703,41.1056366
812,6.083075047,-3.959830046,2.371548653,-162.8689117,69.54935455,38.84248734
813,6.176226616,-4.298357487,1.670148969,-138.6051941,60.99833679,47.14268494
814,5.877388,-4.709479809,1.94556284,-123.6438675,52.30617523,59.93210983
815,4.715634823,-4.436283112,2.391507626,-111.6887283,51.44120026,60.46264648
816,4.663323402,-3.886043787,2.067208052,-105.835289,55.86725616,54.75779724
817,4.894881248,-3.630684853,1.862182379,-112.7604675,61.76040268,50.5606308
818,4.99394846,-2.549975872,2.52466321,-103.7657471,56.06734467,57.29259109
819,4.199648857,-2.91821909,3.18757081,-90.61090088,44.60926437,71.63860321
820,3.005021811,-3.234899044,3.148401976,-86.89237976,35.89144135,80.34430695
821,2.675848961,-3.669026375,3.051150799,-90.7201767,23.44620323,77.26277924
822,3.281289816,-4.000400543,2.759655714,-91.73396301,9.079423904,72.22488403
823,2.949207306,-4.728558064,2.260117292,-92.06758881,-7.221458435,72.09056854
824,2.989230156,-6.257608414,2.118915558,-90.7742157,-19.44094086,71.81050873
825,3.511223078,-8.303387642,2.249592066,-80.98257446,-25.11218643,73.7378006
826,2.805816412,-9.57245636,2.230435848,-70.90453339,-29.35011482,72.61888885
827,2.308629751,-9.282421112,1.745224953,-55.78525543,-33.20428085,67.86048126
828,2.81210804,-8.042931557,3.185624838,-53.67435074,-29.2940979,65.85878754
829,3.14908576,-5.252449989,3.508675575,-72.71188354,-27.89977074,65.84945679
830,2.622298956,-4.409729004,2.833084583,-101.6981812,-33.10330582,63.3515892
831,2.548904419,-6.27752018,2.249067545,-133.8431091,-29.74508095,55.59589005
832,2.907412767,-8.598155975,1.171950817,-153.8704224,-17.39394569,56.83536911
833,3.211728334,-9.263092041,1.21256125,-165.47789,-11.26867104,62.27102661
834,3.177514553,-8.532980919,1.625075221,-167.6344147,-3.321977377,67.25361633
835,3.261471033,-8.714743614,1.724384189,-172.0925293,2.059025764,64.48905182
836,3.165560484,-9.642219543,1.573108912,-178.0236816,-4.414690018,58.15187073
837,3.41569066,-10.37837029,1.23036921,-195.8384247,-15.38237858,64.44530487
838,2.544773817,-9.434135437,0.394858032,-218.7028961,-24.12673187,69.66362
839,2.068873405,-8.550451279,-1.170711875,-251.1179657,-20.55828094,68.44779968
840,2.230305433,-9.650361061,-2.251794815,-267.3841553,-13.9851284,63.6875267
841,2.376469851,-10.16327763,-2.575226068,-264.7333679,-18.57977104,53.75164795
842,2.373223305,-10.30532551,-3.579139471,-259.1035156,-19.98791504,50.00746155
843,2.200264692,-9.833716393,-4.047290325,-260.4910583,-16.46977615,47.59272003
844,2.693253279,-9.464500427,-5.250083447,-241.670517,-1.05385375,43.50912094
845,2.669423103,-9.435127258,-5.775991917,-230.2142639,-0.835249305,36.48243713
846,2.273160458,-8.980653763,-5.731216431,-216.853653,6.194911957,28.00335884
847,1.57997942,-8.622620583,-6.334374428,-223.4120636,-0.611702204,27.76335907
848,1.286000848,-8.342097282,-7.808022022,-246.2147217,-2.072966099,32.1216774
849,1.391771317,-9.038589478,-9.231498718,-257.158905,-8.297277451,31.17045975
850,1.442666531,-9.833872795,-9.972457886,-249.5091095,-7.135522842,21.37829018
851,1.949944496,-10.42772484,-9.096512794,-223.6639404,-3.182068825,7.486690998
852,2.68067193,-10.03563118,-8.454465866,-200.2648315,-8.851703644,-0.438852519
853,3.03891325,-9.790030479,-7.807288647,-174.1977844,-18.27526093,-5.084100246
854,3.132466555,-9.011727333,-6.985212326,-144.564621,-26.49573517,-11.5735178
855,2.792061567,-7.767203808,-7.105396271,-121.2593384,-24.63796043,-18.26355934
856,2.90563798,-6.716956139,-7.104106903,-95.58072662,-24.89278221,-26.68521118
857,2.336166143,-5.340849876,-7.608539581,-68.28398895,-23.24481964,-34.1385498
858,1.99710989,-4.37398386,-7.731328011,-49.80861664,-17.24431992,-38.26553726
859,1.992213488,-3.249353886,-8.269644737,-38.31919479,-21.40514755,-43.23456955
860,1.934758663,-3.322422981,-8.954154015,-31.50824356,-25.51298904,-51.79670715
861,2.553805113,-3.825201273,-9.501976013,-18.53926086,-38.83153915,-60.47014618
862,2.983941793,-3.401103258,-10.20758057,-0.984494328,-52.80180359,-67.22241974
863,3.515837908,-2.309528112,-10.49789429,15.18575764,-63.25227737,-62.65830612
864,3.484747887,-1.859901905,-10.01384449,23.97086906,-65.01609802,-49.89052963
865,2.284052849,-1.932125807,-9.624829292,22.7758007,-69.67764282,-36.15600586
866,1.827992439,-1.996299744,-9.268483162,12.29441738,-73.71472931,-22.24928093
867,1.430069685,-1.695071101,-9.215338707,-4.084721088,-73.2832489,-7.405996323
