PacketCounter,Acc_X,Acc_Y,Acc_Z,Gyr_X,Gyr_Y,Gyr_Z
499,-0.442245483,-6.472229481,-8.360413551,-152.2302399,-31.57113266,42.5513382
500,-0.4413867,-5.509102821,-8.770518303,-151.836731,-39.6553688,39.35603714
501,-0.618298292,-5.497820377,-10.1478796,-151.8803558,-48.16897964,36.46471786
502,-0.75459522,-4.537589073,-10.31096554,-141.901062,-51.89476776,33.41549301
503,-0.930331409,-3.568781376,-9.807961464,-124.1034851,-51.28065491,31.76836395
504,-1.060925364,-3.344390631,-8.541361809,-109.4236221,-52.298069,35.95571136
505,-1.144317508,-4.043001175,-9.12607193,-101.3707199,-45.4836731,38.85166168
506,-0.460665762,-3.717569113,-8.980113983,-90.64457703,-29.70951653,34.47768784
507,0.360461712,-3.899984837,-8.303151131,-59.76550674,-19.51186943,25.87651825
508,0.69943285,-3.920980453,-9.214319229,-34.72458649,-5.523842812,16.43457031
509,0.490641773,-2.682660103,-9.988229752,-7.498684406,5.827486992,8.084005356
510,-0.11060901,-1.624537826,-9.722137451,-0.696601629,9.269667625,0.671648443
511,-0.250840455,-0.128555909,-10.48431492,8.077362061,12.06525135,-6.030540466
512,-1.280413866,0.158089399,-10.27210712,16.77596855,4.674025059,-13.83658123
513,-1.865564704,1.463755965,-9.963550568,20.52845383,8.460495949,-18.40199661
514,-1.540997744,3.17331624,-9.84139061,9.827590942,13.72742748,-14.84824562
515,-2.099452496,2.921799421,-9.542767525,-2.86473155,15.68636417,-8.265916824
516,-1.443404794,2.381883144,-8.486372948,-20.70170784,16.48092461,-4.440485477
517,-1.6209656,1.631839275,-7.840959549,-33.60301208,7.482730865,2.527561426
518,-1.612418532,0.657205582,-7.333959103,-40.2024498,-1.659853816,9.342629433
519,-1.030450344,0.702839136,-7.476661682,-64.06591797,-9.009263992,12.08602905
520,-1.021336079,1.709833384,-7.934599876,-78.04824066,-6.352720261,16.59770393
521,-0.968278348,2.040273666,-7.991453648,-81.84283447,10.00404358,20.69775772
522,-1.190950871,2.640083551,-7.847214699,-76.92152405,30.42660522,22.87012672
523,-2.035107136,3.445636034,-8.535695076,-73.30818939,22.59011459,31.9311142
524,-3.230036497,3.364658833,-9.838027954,-91.65067291,0.945873559,45.798069
525,-3.517174244,2.52258563,-10.5470562,-101.1981125,-8.455078125,56.70009995
526,-2.794387102,2.476843596,-9.962805748,-100.4985809,-1.42427063,50.57043076
527,-2.095405579,3.692626953,-9.363039017,-109.6778717,15.65991783,45.95909882
528,-1.754827142,4.629050732,-9.879097939,-117.1374741,3.022605181,49.53871536
529,-1.414069653,4.953515053,-9.295779228,-128.539032,-11.78002357,52.39582825
530,-2.082217216,4.779088497,-8.674591064,-154.1741028,-10.00348282,56.65002823
531,-2.236128569,4.330572128,-8.756145477,-178.2450409,2.168612957,63.67259598
532,-2.23327446,3.534985781,-8.449574471,-182.2541351,11.93501759,65.3646698
533,-2.434954405,3.792876005,-8.251180649,-187.3150787,17.7814846,65.38381195
534,-2.324341774,5.353900433,-8.087522507,-192.7962799,11.56355095,61.99808502
535,-1.739043474,5.57054615,-8.627121925,-183.4928436,-6.347733021,62.45385742
536,-1.368036866,5.597894192,-8.193303108,-165.8940887,-20.6424942,63.07445526
537,-1.413767099,5.654897213,-7.307372093,-157.0117645,-17.30757904,62.10451508
538,-1.151579738,4.803482056,-6.692062378,-147.3308258,-10.1505661,53.14131927
539,-0.972029984,3.921093464,-5.944020748,-132.0591583,-14.64105034,44.42730331
540,-1.245970726,4.758678436,-5.611071587,-114.6234436,-21.67671967,42.59713745
541,-0.99431783,6.253222466,-5.176151276,-89.62059784,-27.28975677,44.57676315
542,-0.585802495,6.666369915,-4.375499725,-85.02490234,-31.34990692,42.99642181
543,0.129950136,7.095849514,-4.609883308,-84.6601944,-35.21617126,40.09221649
544,-0.108867541,7.355383396,-5.100691319,-78.74507904,-44.90581512,33.88641739
545,0.09931159,6.750282288,-5.86295414,-52.15296173,-51.97867203,23.18774796
546,0.302114159,6.042153358,-5.546072483,-12.58044624,-49.33895111,17.61104393
547,-0.358818501,6.086681843,-5.181962013,0.642945409,-32.45001984,10.93473339
548,-1.121989369,6.617174625,-6.393041611,24.77075005,-23.97395515,-0.551879048
549,-1.092732906,6.734416008,-6.833051205,74.31711578,-25.63014984,-4.682513714
550,-0.57462734,6.875941753,-5.653898239,82.26292419,-7.632032871,-16.74697685
551,0.486370414,7.748387337,-3.79201889,68.32830811,9.628127098,-30.28985023
552,1.069791913,9.355928421,-3.254081488,48.95999908,16.08790398,-33.9956131
553,1.329643965,10.47576523,-3.736192226,50.58999252,-6.660811424,-24.86265373
554,0.502748072,9.213015556,-2.700841188,51.49205017,-22.0863533,-11.47957802
555,-0.100517653,7.346908092,-3.830949545,53.67759323,-30.13000107,-10.66512012
556,-0.693645,6.924053192,-5.762944698,90.26347351,-49.01736069,-15.80109978
557,-0.849768221,7.785241127,-6.654467106,103.1774673,-60.11389542,-18.20373535
558,-0.432934105,8.357507706,-6.662175655,82.57953644,-50.9362793,-17.81672096
559,-0.290359616,7.64727211,-7.093929291,59.06235504,-36.31261826,-27.53374672
560,-0.7646662,6.463139057,-8.066173553,51.93363571,-24.86149216,-34.77318954
561,-0.498242617,5.869008064,-8.652140617,58.85186005,-3.17174077,-39.56116486
562,0.382717609,5.941573143,-8.763977051,61.7901535,12.06063938,-37.78830719
563,-0.078295439,6.390788555,-8.995948792,62.20352936,6.575708866,-23.2040863
564,-0.130788609,5.801698208,-7.670348167,31.95417023,14.54794312,-16.97200012
565,0.063824564,4.737138748,-5.946885109,0.382687896,35.14755249,-19.61947823
566,-1.624214411,5.442885399,-9.712136269,22.28877831,3.719406366,-8.002133369
567,-2.449683905,5.021687031,-10.63986111,61.65664291,8.777297974,4.221466064
568,-2.703188658,5.485213757,-8.989218712,57.94737244,19.84651756,-0.229909033
569,-1.7318542,6.075833797,-7.47139883,45.76778412,24.68708801,-9.388863564
570,-1.814024925,6.674533844,-7.740374088,44.77418137,14.17989922,-9.809806824
571,-1.760776877,5.617150784,-7.697144508,37.69155121,11.09837341,-10.52566433
572,-0.924430132,3.384358644,-7.293002605,42.51870346,11.14018059,-14.26243782
573,-1.37307477,2.11901927,-6.554690838,56.89927292,7.642179012,-19.67297173
574,-2.47874999,2.99990654,-7.457080364,81.53112793,-17.62464714,-18.18204498
575,-2.525442839,3.422344685,-7.775620937,82.91190338,-28.4753418,-14.53600025
576,-2.312479019,2.72262454,-7.55158186,60.09864426,-22.01569176,-16.70030975
577,-1.860683084,2.681783915,-8.00189209,56.00007629,-15.8867569,-21.01948357
578,-2.348641872,2.824341774,-8.761959076,66.33920288,-19.82619286,-20.7994957
579,-2.141943693,1.179743767,-8.775771141,72.90466309,-20.44351196,-20.94397163
580,-1.624159575,2.407460928,-8.782261848,73.40065765,-1.971898675,-22.90723038
581,-0.824465334,3.472102404,-7.98938942,98.41311646,15.9991293,-31.74950218
582,-1.07319355,2.349060297,-6.232887268,105.9422836,18.08590508,-37.54868698
583,-1.402776837,0.315835685,-7.301306248,117.3149109,4.249046326,-46.21485519
584,-1.706444144,-1.349920988,-8.363820076,138.1714325,2.340863943,-48.43437576
585,-2.601324081,0.241318136,-9.281290054,151.491272,6.737117767,-47.67964935
586,-4.000275612,1.32728827,-9.985706329,154.5952911,17.73987389,-50.77651978
587,-3.928785563,1.884499788,-10.38290215,173.1884003,25.45195007,-58.73439407
588,-1.887894869,-0.596198082,-8.426431656,176.1949158,45.58574677,-68.40211487
589,0.136211365,-1.46370244,-6.98386097,158.7241974,63.47499847,-69.03897858
590,0.080629066,-1.564031959,-7.612670422,177.2245331,64.84043121,-67.35030365
591,-1.411459088,-2.332116842,-9.728261948,226.5711365,47.18872452,-69.59972382
592,-2.464286327,-4.244690895,-11.4222641,273.1921387,30.94483566,-69.39904785
593,-2.407788992,-4.751543999,-11.16995621,278.81073,23.02478981,-65.27393341
594,-3.115857363,-3.785591602,-11.43806934,251.1755371,14.22660732,-57.94805527
595,-2.874997854,-3.54953146,-11.31072617,253.4324036,22.69832039,-48.92919922
596,-1.665875077,-3.767215252,-9.782631874,234.228714,34.28976822,-46.81642914
597,-0.255565941,-3.437648296,-9.85184288,194.553009,28.48192024,-42.24132538
598,-0.444152415,-2.900319815,-9.134074211,170.1068268,31.51195526,-32.13758469
599,-0.574594498,-3.375980616,-7.771586895,140.7848358,27.756567,-27.34253883
600,-0.363380075,-4.182676315,-7.035083294,114.8366165,23.9891777,-27.33646202
601,-0.941754699,-5.028398991,-7.280247211,90.49131775,12.83426666,-20.19790077
602,-1.024861813,-5.52714777,-7.152812004,64.21405792,0.807843328,-15.82280827
603,-0.579834998,-6.11521244,-6.800479889,49.10521317,3.717429638,-12.12442017
604,-0.824451804,-5.319161892,-5.9529562,22.70116806,2.791105509,-11.2387886
605,-1.78984499,-4.861299038,-7.097922802,7.840173721,-6.91714859,-7.527551651
606,-2.056128263,-4.987951756,-7.862084866,11.55664539,-10.82829094,-0.988587081
607,-1.177120924,-5.950710297,-7.272763252,-6.549027443,-15.65309811,5.028252125
608,0.260068059,-5.583524227,-7.148941517,-48.52664185,-29.75823212,11.187047
609,0.338807583,-4.428587914,-7.588061333,-96.58630371,-20.71668625,19.72959518
610,0.667735994,-5.002962112,-6.386012077,-120.6605682,3.455582857,27.937994
611,0.17763035,-5.100477695,-6.573941231,-153.010788,5.208976269,31.52754974
612,-0.478583604,-5.093860626,-7.788657665,-173.8271027,-5.874354362,38.79045105
613,-1.315902591,-5.404827595,-9.325378418,-189.2913208,-11.92297173,40.24057007
614,-1.586987495,-6.081662178,-8.926564217,-188.1795959,-15.47090626,41.82698822
615,-1.471026301,-6.276854992,-9.948487282,-170.0190277,-27.2338047,42.85216904
616,-0.797992229,-5.497360706,-10.43142796,-140.2671967,-35.86130142,39.15524292
617,-0.561135352,-4.725915909,-10.03133011,-115.6781616,-31.16573715,33.78889465
618,-0.490425467,-5.402407169,-9.372006416,-102.8249512,-33.49438858,25.20274353
619,0.007406235,-4.714796543,-10.74653912,-79.64733887,-47.53212738,14.31601429
620,0.461383015,-4.251365185,-11.81094742,-59.36523056,-43.03360748,5.274516582
621,-0.162434861,-5.716009617,-11.04935551,-49.21549225,-30.2473011,-4.631996155
622,-0.402582824,-4.938310623,-9.380139351,-31.16141701,-21.95812035,-12.53405476
623,-0.974409223,-2.996783018,-7.157878399,-21.78157234,-17.75336838,-23.55369759
624,-0.290893227,-1.814948797,-7.900059223,-18.81230164,-28.45291138,-21.66139793
625,-0.344778806,-1.578000307,-8.272155762,-29.80258179,-24.09992981,-16.50795937
626,0.249646783,-2.316831112,-7.386160374,-50.56659698,-15.11325169,-20.48939133
627,1.357758641,-2.305513859,-8.230067253,-37.85970306,-6.253832817,-22.60633659
628,-0.044657655,-1.145675778,-8.37528801,-21.49227715,-0.484850049,-22.42053413
629,-1.122432351,-1.377290606,-9.335113525,-5.402632713,-4.347132206,-15.62094498
630,-1.212823868,-2.201873779,-9.352283478,-5.922072887,-5.59798193,-15.75501633
631,-2.37403512,-0.685494065,-8.927471161,-23.28820229,1.829449534,-14.92717171
632,-2.419888496,0.409480244,-8.153717995,-48.72003174,8.44934082,-10.9230957
633,-1.981556416,0.557533026,-7.964757919,-63.44465637,2.035424948,-2.761561632
634,-1.70774889,0.129454717,-7.847916603,-70.91384888,-5.63351202,5.092287064
635,-1.677476883,-0.809896231,-7.676988602,-79.88631439,-8.160533905,8.597016335
636,-1.153303385,0.195441872,-8.752961159,-74.12713623,-4.645557404,11.34925747
637,-0.844674885,0.011619397,-8.060696602,-80.71503448,-7.394743443,15.25296688
638,-1.143508315,0.86824584,-7.502976894,-102.4494629,-7.246253014,19.14471245
639,-1.48536694,1.058176756,-7.433813572,-120.769249,2.147516489,25.71412277
640,-1.821932912,1.039348125,-8.997625351,-135.1742096,13.18266201,30.06944656
641,-1.94369936,0.923667073,-9.014469147,-131.2598114,22.82159615,35.89368439
642,-2.57640934,1.268564224,-10.8210392,-123.2674332,9.252880096,41.82548141
643,-2.541045666,2.178021669,-12.11815548,-98.21349335,-1.793373704,47.14565659
644,-2.648808241,1.996339679,-9.882658958,-97.20320129,10.51732254,46.70288849
645,-2.233611822,2.879109621,-8.92993927,-136.1846619,17.7834568,53.35328674
646,-1.711162448,4.419635773,-10.0645628,-175.3117371,9.392858505,59.30865097
647,-1.761425734,4.702689171,-10.69177532,-199.0453949,5.588079929,66.69221497
648,-1.90133822,3.356777906,-8.646371841,-230.5456085,10.50689125,65.37033844
649,-2.103765965,3.381500483,-7.606089115,-247.4818268,10.64691448,67.99178314
650,-1.995049953,5.30820322,-7.552888393,-254.8171692,11.6203289,62.55355072
651,-2.276238918,7.345375061,-7.975615978,-266.4698792,12.471488,56.77214813
652,-2.605107546,8.563887596,-8.061975479,-290.0339355,4.639549255,56.70700073
653,-2.710722208,8.078629494,-8.582346916,-280.2291565,-10.33338737,58.99946976
654,-2.581082582,6.184987545,-8.315574646,-255.8164063,-18.85430336,54.35462952
655,-1.544371963,4.8309021,-7.621712685,-223.1905823,-29.15150642,47.99705505
656,-0.711130321,4.966320038,-7.017781734,-174.8195343,-37.10265732,50.00387573
657,0.01681282,4.931114674,-5.635865688,-139.3909912,-36.04760742,50.28343582
658,0.345746338,6.211533546,-4.175147533,-132.2167206,-28.04945374,45.83159637
659,0.683518767,7.684885979,-3.413330555,-124.8755569,-27.88549232,41.23713303
660,1.330612659,8.28762722,-3.561855316,-106.4824371,-33.72799683,41.05052185
661,0.664883673,7.415869236,-3.366988897,-73.6873703,-39.70388794,37.50928116
662,-0.238169789,6.733208656,-2.482793331,-44.17340851,-39.86355972,28.37322617
663,-0.794593275,6.94513464,-1.872463465,-25.94814873,-31.16401863,21.26652718
664,-0.838493586,7.025484085,-2.705632448,-18.06423569,-15.97728252,12.03253937
665,-0.599585116,7.01586628,-4.742698669,36.26828003,-33.04020309,10.83924294
666,0.367097765,6.901237488,-3.426520109,79.23868561,-32.67062378,-2.840636969
667,0.62771219,5.609319687,-2.137606144,81.49191284,-4.114019871,-27.62799263
668,0.673042297,7.614627838,-3.286349297,113.2218704,-11.29288673,-36.8152771
669,0.393277407,9.880235672,-3.995560169,143.7580414,-24.57619476,-27.82073975
670,0.450186908,10.24177647,-2.664929152,92.12071228,-16.75256348,-23.03242683
671,-0.294251353,10.11944103,-3.679774046,58.63552856,-4.447592735,-23.30625916
672,-1.300069094,9.260565758,-5.172324181,87.67263794,-16.95974922,-23.59629059
673,-1.522301674,9.099238396,-5.214553833,120.5448227,-32.23167038,-23.55798912
674,-0.453476518,9.207326889,-4.994731426,121.899765,-47.22675705,-29.06734657
675,-0.008458406,9.376609802,-5.724627495,109.4194336,-40.98534393,-36.34852219
676,-0.091445506,8.860263824,-6.31667614,98.17346191,-25.83258247,-40.30208588
677,0.120324001,8.25288868,-6.877561092,85.71749115,-12.51066589,-39.42173004
678,-0.121367507,8.07661438,-7.219109058,81.63486481,-14.89443684,-30.3758564
679,0.251005739,7.167758465,-7.236642838,57.46641922,-14.29594517,-23.57228279
680,1.282553911,7.273799896,-7.028412342,26.87743759,-18.53690147,-24.59834862
681,0.587681651,8.436379433,-8.110915184,23.07340813,-31.23450661,-19.37436676
682,-1.36312139,8.118566513,-9.877985954,40.75420761,-27.96534157,-11.60463047
683,-1.784890175,6.532074928,-11.12712002,62.51359558,2.338914394,-10.9702158
684,0.181258529,3.561012745,-6.692939281,41.62607574,74.58899689,-17.99797821
685,0.355857402,4.096940994,-2.939878225,-8.862724304,96.50997925,-21.22153854
686,-2.201908827,6.03099966,-4.598289967,22.65317917,61.0475769,-20.84404182
687,-3.003127098,5.82715416,-5.790183544,75.69858551,6.830253601,-18.83424377
688,-2.288487911,5.935576916,-7.184412479,85.05922699,-33.11691666,-16.65966988
689,-1.611360192,5.51700592,-8.43465519,80.44944,-38.47841644,-14.78241158
690,-0.934840202,4.613928318,-8.170080185,69.18785095,-20.14413452,-24.6726532
691,-1.543318391,3.572164536,-7.374803066,69.45761871,-11.71589184,-31.77230835
692,-2.372861624,4.026591778,-6.901067257,76.55919647,-17.21246719,-39.06053925
693,-2.369514227,4.552138329,-6.631836891,85.68378448,-24.74655533,-41.60074997
694,-2.320774317,2.948191404,-6.247298717,86.34767914,-38.70579529,-42.68158722
695,-2.655790567,1.737418056,-6.663582802,91.15222931,-50.39255905,-40.05584335
696,-2.103744507,2.146212816,-7.694015026,89.55908966,-54.23004532,-34.59124374
697,-1.401330352,3.54244113,-8.163804054,87.09052277,-35.2056427,-28.39599419
698,-1.624122858,3.621764421,-6.028208733,66.16344452,-7.543446064,-25.43916702
699,-1.990287662,3.519078016,-5.608727455,51.27039719,16.72766495,-25.76901627
700,-2.128072262,3.414698124,-6.05656004,69.26637268,20.53615379,-30.42119598
701,-2.104441166,2.899431944,-6.883178711,98.39215088,13.23956203,-39.42421341
702,-2.157747507,1.896713018,-8.512473106,108.7398529,9.025419235,-40.9504776
703,-2.40184617,1.07963407,-10.43750095,101.9364014,11.57271671,-36.21027374
704,-3.15347147,0.723423123,-10.72281265,94.59598541,19.69351578,-35.74072266
705,-4.378723145,0.871019721,-10.38187122,103.5417099,22.50231171,-36.30326843
706,-4.268972874,1.672476292,-10.42307854,134.6542358,16.9716053,-37.87857819
707,-2.99205327,0.272058457,-9.068076134,153.8303375,29.72906113,-46.68711472
708,-1.749784708,-1.427908659,-7.737547874,151.5397797,43.64949417,-57.95097351
709,-1.75872016,-0.92842561,-8.180667877,181.0703735,37.05174637,-60.52264023
710,-2.243036985,0.480572641,-9.54733181,222.1099091,23.05571938,-59.9646759
711,-2.122948885,-0.772709966,-10.2094841,229.7710876,15.93854237,-58.36133575
712,-2.309262514,-3.74138546,-10.22122383,205.1908417,13.63300991,-54.60372543
713,-2.493688107,-4.492999077,-10.69173241,190.1598206,16.98221397,-54.37509918
714,-2.773257256,-2.615482092,-11.07201958,199.4152679,22.82746124,-56.73704147
715,-2.394854784,-2.333035946,-10.78070068,210.3282318,35.21039581,-60.15858459
716,-1.731021166,-3.377851963,-9.677552223,196.6542358,43.51890564,-60.49068451
717,-1.093180418,-4.340512753,-9.02457428,172.6201477,44.44552231,-54.29147339
718,-1.414011002,-4.702109814,-8.585000992,135.8299713,41.03573608,-42.76301956
719,-2.358963728,-2.58500576,-8.932278633,106.141922,31.62495041,-36.88466263
720,-2.625529766,-2.76198101,-9.305025101,105.8552551,12.59059334,-31.77446365
721,-2.484961987,-4.767379761,-8.857748032,84.2407074,-1.727878451,-19.86875725
722,-2.059746504,-5.192424297,-8.37903595,55.64480209,-3.617348433,-11.48133087
723,-1.731008649,-4.733680725,-7.899931908,36.33198166,-4.203012466,-3.578994751
724,-1.26947391,-4.665558815,-6.528521538,10.385602,2.73997736,4.523851395
725,-1.684733987,-4.499042034,-4.97473526,-19.06137276,1.028498888,9.954961777
726,-2.072557926,-4.127479076,-7.291263103,-32.43900299,-17.53136063,14.42144299
727,-1.747659802,-4.444128036,-7.701378345,-31.62599564,-15.49692249,17.97164154
728,-0.419383556,-4.358100414,-8.061293602,-43.2586937,-16.51188087,22.06186485
729,0.408208936,-4.596148014,-6.024435043,-71.22590637,-1.251243114,21.25975227
730,-1.023068786,-2.44775176,-7.805231571,-98.46286011,-16.57774162,31.99423218
731,-1.437099934,-2.247218132,-10.36346245,-122.8143997,-26.2989254,46.64927673
732,-1.662822485,-3.310067654,-10.85587215,-140.4201813,-22.23198509,51.39714813
733,-1.746081591,-4.169227123,-10.69945908,-137.188385,-19.19926071,51.74193192
734,-1.776058197,-4.57571125,-10.07435036,-134.5347137,-12.29676628,53.52436447
735,-1.809783697,-4.356268406,-9.429079056,-135.8927917,-5.71095562,51.11373901
736,-1.683641911,-4.485792637,-9.423839569,-123.1486282,-3.664476871,44.65917969
737,-1.44084239,-4.934892654,-8.871068001,-97.8468399,-2.019292831,35.6219101
738,-1.145968914,-4.890450001,-8.144189835,-75.39550781,-3.122334957,25.51026535
739,-1.240283489,-4.165430546,-7.549988747,-45.48751068,-4.450423241,18.23436546
740,-1.057728052,-2.962948561,-7.213368893,-26.60987663,-17.23849678,14.85064697
741,-0.705664575,-2.126987219,-7.727324963,-33.88082504,-25.65673828,11.78162193
742,-0.749296248,-2.64700985,-10.28486538,-40.70713425,-17.63580322,10.04308796
743,-1.285366178,-2.813893795,-11.81382847,-28.9953289,0.368779153,4.643142223
744,-1.638545871,-2.580281734,-11.54507065,-17.05201912,15.70144081,2.159532309
745,-1.198338151,-3.331868649,-9.61397171,-27.17425537,25.49589348,-0.729068995
746,-0.464495599,-4.238363743,-8.411621094,-19.52062988,22.47842407,-7.907844543
747,0.300140321,-3.875319004,-8.9460783,-5.154372215,12.59507179,-16.60011673
748,-0.064233996,-2.106866837,-9.355236053,15.80722332,9.260931969,-22.05807877
749,0.116813697,0.63768065,-8.795536041,17.83819389,0.615890503,-14.3117094
750,-1.042119265,0.568270624,-7.871901512,-11.41592121,-2.73493886,-8.789222717
751,-2.045529366,-0.010171957,-8.833303452,-17.82161522,-2.368602276,-12.60274887
752,-2.114516258,0.100088224,-9.099151611,-6.733979225,-5.102898121,-10.2764864
753,-2.106299877,0.229516983,-8.96282959,-11.63563919,-7.63406229,0.759269774
754,-2.247628689,-0.272262633,-8.960533142,-27.28547096,-9.975622177,7.904744625
755,-2.437713146,-0.746976912,-9.081130028,-42.91786194,-6.546944618,7.759464741
756,-2.622248411,-0.069604129,-8.285252571,-54.1464119,-10.71753502,11.50712585
757,-1.966648579,0.137824461,-7.821094513,-62.36376572,-20.51006699,19.20771027
758,-1.991979241,0.484051973,-8.047719955,-62.6947937,-33.10352325,25.98773003
759,-1.784159184,0.25890857,-8.072727203,-70.108284,-41.77105713,31.40892601
760,-1.959875703,0.567585766,-7.877545834,-78.55810547,-38.25513077,38.11894989
761,-1.697580099,0.784635007,-8.243524551,-91.85475922,-32.0165596,43.30216217
762,-1.466446757,1.458907008,-9.47864151,-109.00457,-30.92434692,50.10220718
763,-2.00167799,1.0080446,-9.26859951,-114.9223862,-14.12003422,49.9278183
764,-2.474399805,1.78507638,-8.837490082,-119.4333344,-1.372473955,50.9807663
765,-2.546659946,2.775195599,-9.46122551,-124.9677658,11.46563816,52.24002457
766,-2.821872234,3.614485741,-8.877663612,-146.8529663,31.76609421,52.49869537
767,-2.90519762,4.003189564,-8.327997208,-166.6557007,41.44630432,56.2857132
768,-2.861087084,3.269000053,-8.135539055,-184.3652496,37.88208008,61.55026245
769,-2.691568375,4.056027889,-9.387591362,-187.2101135,27.30485344,69.74708557
770,-1.99753201,5.782894611,-9.924809456,-195.5965271,14.39499569,73.53347778
771,-2.374545813,5.4715662,-9.265953064,-220.5167236,18.18645859,69.42011261
772,-1.831232667,5.162308216,-8.506390572,-247.7523804,15.56504822,62.92033005
773,-1.515284061,5.763693333,-8.543465614,-230.3200226,7.215141296,69.1620636
774,-1.675735593,6.110591888,-8.151750565,-213.0343475,-3.756160498,66.9407196
775,-2.007951498,7.214753628,-7.365973473,-213.9437103,0.134868011,61.4474144
776,-2.359925985,7.107432842,-7.595460892,-218.6002045,-1.600201845,62.56807327
777,-2.293907642,7.054212093,-7.535791397,-208.5857239,-1.811803937,59.85242844
778,-0.987372518,6.346445084,-7.117916107,-192.4126129,0.779498637,56.66336823
779,-0.839874804,5.589885235,-6.163361549,-160.3599396,-8.421559334,56.2719841
780,-0.567104697,5.149012089,-4.071251869,-136.7623444,-10.55313492,50.33193588
781,0.122595876,5.919113159,-2.752462864,-109.5466156,-14.048666,41.55172348
782,0.686026931,7.034486771,-3.238994122,-60.31105423,-40.83498383,35.36270142
783,0.403211474,7.51051569,-3.893572569,-20.30408478,-63.31088257,23.22771645
784,-0.67961663,7.223480225,-3.63209939,-2.831057072,-67.13705444,13.95858479
785,-1.726712704,6.523291111,-4.878845215,33.04762268,-52.10073853,7.896956444
786,-1.391170263,5.907760143,-5.286512852,87.61073303,-46.23216629,0.455275059
787,-0.192463994,5.381828308,-3.589568615,100.5158539,-20.63305283,-20.16606331
788,1.424980998,5.988757133,-2.587085247,82.95405579,9.745147705,-47.55133057
789,0.655996561,9.063801765,-4.756081581,97.06938934,3.74589777,-53.59016037
790,-0.801282465,10.74096298,-5.830879211,135.7423859,-19.83589172,-35.81496048
791,-1.151141286,9.945364952,-3.042863369,98.30715942,-17.6445961,-32.61341858
792,-0.567645609,9.085693359,-4.526917934,52.59492111,-10.06929779,-42.23064423
793,-1.242950797,7.365633488,-6.400831699,65.11183929,-18.50117493,-47.05841064
794,-1.313360572,6.835787296,-6.366974354,99.68405914,-24.27015114,-49.27102661
795,-1.457815886,6.849984646,-5.72902298,117.7137527,-24.69581604,-54.08818817
796,-1.520544767,7.07901907,-6.478480816,98.98178101,-0.015419569,-59.54385376
797,-1.478382826,7.628375053,-7.572614193,70.32970428,28.17520714,-56.20573425
798,-1.055581808,7.963797569,-7.991206169,61.26510239,32.90436554,-47.87407303
799,-0.671323478,7.709412575,-7.722801208,52.5416832,30.96103668,-34.09155655
800,-0.408032745,6.338562012,-6.746782303,21.82189369,37.12640762,-20.27059174
801,-0.37029171,6.705199718,-6.456551552,-3.26790309,36.92067719,-12.38075733
802,-0.564879298,7.152693748,-6.277302742,-12.01592827,26.58557129,-5.762106895
803,-1.252314925,8.492481232,-7.826776505,-7.782800674,18.1658268,-1.796195507
804,-1.774841666,7.618254662,-9.815303802,4.266022682,-6.543742657,13.40160465
805,-1.489637613,5.397618294,-7.79837513,5.448373318,14.75771999,14.46066284
806,-1.36222744,4.367606163,-5.404430389,2.953648567,32.60481262,0.249282941
807,-2.434830904,5.025182247,-7.103477001,12.24133492,-2.467657089,-3.405799389
808,-2.826153755,8.279340744,-9.789553642,51.97961426,-41.69206619,-2.48607111
809,-0.627760053,8.667740822,-8.940207481,43.29875183,-37.13911438,-7.97127676
810,0.24035652,5.761996269,-7.777877808,26.23124313,-17.66705322,-16.00216866
811,-2.347748995,4.01287365,-7.913047314,41.38556671,-15.71894264,-21.87593079
812,-3.28350687,4.137549877,-7.532649517,67.93625641,-21.26359749,-26.94418526
813,-2.468674421,4.37194252,-6.334525585,76.37979889,-18.72413063,-35.76921463
814,-2.942051649,4.351557732,-6.196153641,79.84394836,-22.33400345,-41.86271667
815,-3.053901434,3.114403009,-6.237092018,79.46942139,-29.45442963,-38.83297348
816,-2.514748812,2.185689688,-6.7742033,71.50830078,-31.30898666,-36.46919632
817,-2.179418087,1.985490799,-7.127905369,78.35361481,-28.5818882,-38.99977112
818,-2.064589262,1.692715406,-6.23028326,99.36075592,-13.69134808,-40.88896942
819,-1.625370264,2.990615606,-6.767950535,119.492218,-12.44150162,-45.12936401
820,-1.520625591,3.026646376,-6.435145855,123.5784073,-20.72004318,-48.51079559
821,-1.650170445,2.016520739,-6.403051376,113.5700607,-26.32379341,-49.94067001
822,-2.177459002,0.492808938,-7.736784935,104.2744217,-15.28404617,-49.52897263
823,-3.227429867,0.269346505,-8.546782494,97.42702484,2.926531792,-47.01870728
824,-3.845565319,1.495464087,-9.176333427,107.8579636,16.61721802,-45.73398209
825,-4.688122749,2.3942101,-10.42805386,136.7508392,14.94030094,-46.7148819
826,-3.68645978,1.154049397,-8.836500168,164.3238983,25.95065308,-54.86980438
827,-1.770457029,-1.285477877,-5.740250111,146.4245453,56.16398621,-66.24765015
828,-0.807670712,-1.439706564,-6.631634712,156.264679,69.51802063,-75.50700378
829,-1.25892961,-1.150247931,-7.604737759,201.537735,59.23648834,-75.69963837
830,-2.072025299,-1.735978127,-9.945559502,227.4836884,34.13030243,-71.07322693
831,-1.923082709,-3.280444145,-11.1666975,237.7044067,15.08274841,-69.84552765
832,-2.288213253,-4.153573036,-11.56582165,224.9476013,15.75311089,-70.38189697
833,-3.491105795,-4.01437664,-11.62394619,238.6430359,15.56710625,-72.77571869
834,-3.702650785,-3.71909976,-10.77040482,254.2427368,27.48523331,-76.31738281
835,-2.612292767,-2.887864113,-10.34452629,240.2404633,35.20662689,-72.62004089
836,-2.299341202,-1.761553288,-10.34825134,226.5339966,39.0426445,-63.39537048
837,-2.144866705,-2.023089409,-9.608634949,215.9251404,42.34323883,-61.02759171
838,-1.915025473,-3.505807877,-8.374851227,188.6118622,52.41454697,-55.56297684
839,-1.612692356,-4.388344288,-7.269605637,125.572403,38.62997055,-39.86164474
840,-2.404315948,-3.695958138,-8.009759903,92.1102829,25.68661499,-28.75051117
841,-2.239973307,-4.121345997,-7.890868664,82.99788666,25.29261971,-24.92307472
842,-1.795076132,-5.629243851,-6.600934029,31.50206947,25.61155891,-11.55404949
843,-1.700371504,-4.882055759,-6.725230217,-15.37678432,16.54191208,2.354451418
844,-2.183051348,-3.929002523,-7.048330784,-32.83431625,8.673667908,7.058856964
845,-2.340784073,-3.898019791,-7.479916573,-47.00855255,2.493730307,9.59115696
846,-2.311968327,-4.428787231,-7.651531696,-66.54281616,-10.94732189,17.62102509
847,-1.022842884,-4.571971893,-7.624650002,-92.907341,-20.20645714,28.59375
848,0.175933197,-4.270802975,-6.054117203,-135.1228943,-17.03514481,38.53644562
849,-0.425881684,-4.289317131,-6.678541183,-161.5514832,-20.81869698,46.42484283
850,-1.495885134,-5.132521152,-8.750600815,-178.500061,-21.46352768,51.55789185
851,-1.497561097,-4.655305862,-10.64242458,-178.6279755,-24.79159927,62.4771347
852,-1.678038836,-4.177065849,-10.6611433,-176.996994,-20.88071632,65.51615906
853,-2.461340904,-4.032379627,-9.40158844,-173.7841187,-15.06145191,62.94502258
854,-2.619259834,-4.002038002,-9.081118584,-163.8690338,-16.35075378,60.63320923
855,-1.970717549,-4.477214336,-9.424179077,-141.4771729,-18.47095108,52.74485016
856,-1.215835571,-5.664083481,-9.764479637,-100.1346283,-23.02463913,39.96796417
857,-0.777458489,-5.688044071,-10.12576294,-61.07767105,-31.35759735,34.03551102
858,-0.853915513,-4.550085068,-9.380921364,-36.4294548,-34.54854965,29.02297401
859,-0.702439547,-3.458583593,-10.16612625,-29.14400101,-40.54344177,19.35044098
860,-0.867541313,-3.042861223,-10.68407345,-29.01371765,-42.19566727,9.652091026
861,-1.169069052,-2.552111626,-10.82543182,-26.39748573,-32.5868454,-1.684275985
862,-1.902237654,-1.526058912,-10.37013721,-19.94109344,-23.24044418,-10.44114399
863,-1.469099879,-1.302096009,-9.66388607,-14.55882835,-17.28919792,-11.1971283
864,-0.610462546,-2.458694696,-8.270855904,-8.315529823,-5.402901649,-13.02301979
865,-0.181585327,-3.142126322,-8.458662033,-2.918392658,-2.855717897,-21.12570763
866,-0.916913748,-2.109281778,-9.041333199,11.71388626,7.224848747,-28.31157875
867,-0.86508441,-0.035985336,-9.025442123,11.56120491,7.570043087,-26.53147316
868,-1.50263381,0.720746756,-9.081187248,1.555545092,7.920503616,-20.62300873
869,-2.116885662,0.172647223,-9.040163994,1.928608298,14.19322586,-20.49828339
870,-2.369582415,-0.378815293,-8.968856812,8.881547928,10.72053146,-19.62167358
871,-2.753192425,-0.543365538,-9.189948082,5.93771553,3.212623596,-16.95201492
872,-2.603095055,-0.237639964,-9.452126503,-10.5667963,5.331831455,-9.668187141
873,-2.911521435,-0.254555047,-9.561003685,-26.80592537,4.173606873,-4.473910332
874,-3.048259258,-0.351480812,-9.534705162,-36.50637054,3.873330355,-0.518006384
875,-2.663891792,0.209324419,-9.302161217,-37.30247879,-4.699393272,13.03495884
876,-3.252052546,-0.171689034,-7.839062691,-43.89228439,-40.66110229,29.35754967
877,-2.164847136,-0.865302324,-10.72253132,-82.58709717,-50.35401535,39.52410889
878,-1.564955473,0.008184969,-8.928073883,-86.08973694,-21.86605835,43.29652023
879,-2.485315561,1.137868285,-7.020970821,-88.30968475,-23.3392334,54.81248093
880,-3.106506824,0.75622642,-6.797550201,-116.3767929,-26.63250732,63.57304382
881,-3.585230589,0.676950395,-9.491295815,-164.9961548,-11.61203861,69.38258362
882,-3.501626015,1.811588407,-11.31153965,-147.9797821,-7.327113628,69.27346802
883,-3.479165316,2.067588568,-8.331780434,-137.065567,1.386458158,66.32107544
884,-3.781595945,2.829045534,-8.084130287,-149.2298126,1.927222371,65.91653442
885,-2.947668791,3.721554756,-9.080481529,-150.5011444,1.684692621,70.96279144
886,-2.42939806,3.535138607,-8.688293457,-161.2725067,-1.781254768,75.34461212
887,-1.939984918,3.680450916,-8.917402267,-175.7917328,-3.068702459,80.14260101
888,-2.104010105,3.990345955,-8.855311394,-181.7153473,8.44155407,85.6339798
889,-2.563486576,4.765629768,-7.950270653,-184.4142761,17.18441582,85.01664734
890,-2.538905144,6.823627472,-8.177305222,-203.1294403,12.8395319,89.00720978
891,-2.196091413,7.507103443,-8.321269035,-208.4336548,10.88534641,91.48959351
892,-2.235057116,5.774389267,-7.641020298,-206.7614746,7.881316185,86.10903931
893,-1.938856602,4.965582848,-7.842684746,-199.1308289,9.577337265,78.33679962
894,-2.161527157,5.826430798,-7.294613838,-176.9546356,14.89991283,72.70031738
895,-2.33300209,6.140371799,-6.4643507,-159.2542877,15.0328846,68.58565521
896,-1.694317937,5.653245449,-5.410594463,-150.5625763,10.49663067,65.30753326
897,-1.060392976,5.482013702,-4.61707449,-139.505188,0.137301534,58.30800629
898,-0.557177126,6.134823322,-4.057312965,-123.8484497,-5.757238865,49.58771133
899,0.587482393,6.786612511,-4.046366215,-121.0400925,-12.06216621,40.40703201
900,1.040909171,6.563015938,-4.775585175,-98.76766968,-23.95680428,34.78251266
901,0.896762788,6.37715435,-4.469704628,-46.92292404,-44.10412979,29.65011024
902,-0.073768772,6.623274803,-3.740985632,-20.24605751,-35.6037674,22.00768089
903,-1.26396215,6.671339035,-4.307415962,-16.23951721,-11.62944031,11.12838554
904,-1.717210174,5.690098763,-5.185510159,12.97397423,-5.797092438,4.88044548
905,-0.830251515,5.150515079,-3.94389677,35.1275177,5.998811245,-9.472569466
906,0.347058564,6.072417259,-3.035710812,47.10259628,20.88595581,-27.20425606
907,0.143821597,6.825072765,-2.720840931,73.90785217,19.34769058,-44.18118668
908,-0.48239395,8.528689384,-3.532028437,93.61802673,3.978568077,-46.41848755
909,-0.809168041,10.49867344,-4.887898445,97.18605804,-12.25383377,-37.10074234
910,-0.752158046,10.27793598,-3.755763769,74.12995148,-11.27020836,-31.30934525
911,-0.928248346,8.377597809,-4.914585114,60.79353333,-7.631890297,-30.36366081
912,-1.704910994,7.140954971,-6.332725525,97.85444641,-18.60736656,-27.79282188
913,-1.50448215,6.895617008,-6.203718185,121.5203629,-25.71304512,-30.38259697
914,-0.94771564,7.516653061,-6.172729969,112.9503937,-24.16196632,-32.39184952
915,-0.867467463,7.558752537,-6.362566948,91.7948761,-15.56696129,-34.12249374
916,-0.872032344,7.369951248,-6.70953083,80.8822937,-9.861269951,-37.28223038
917,-0.891226113,7.69929409,-7.064555645,86.34553528,-12.22352791,-29.78851128
918,-0.710599959,7.298513412,-7.065689087,67.79141998,-15.39814091,-25.48698807
919,-0.667313576,6.868684292,-7.389727592,23.09569931,-22.60831833,-24.03912926
920,-0.977451682,5.964594841,-7.577557564,-9.723264694,-12.26963615,-25.43857574
921,-1.707000971,6.416917801,-8.530298233,-10.49793148,-3.25091362,-26.23632622
922,-2.368111849,7.485387325,-9.428909302,11.48549843,-1.04396224,-14.90233231
923,-1.923447609,7.197906494,-8.944079399,14.98300171,14.0425024,-10.44325161
924,-1.416410923,6.296593189,-7.605176449,4.519132614,35.30343628,-10.08507252
925,-1.381120563,5.661324024,-6.47251749,1.505522847,51.87473297,-11.06535721
926,-2.056179523,4.794771671,-7.264622688,9.166920662,33.9136734,-3.698015928
927,-2.607169151,5.327360153,-7.108847618,26.35882187,8.438810349,-1.72455883
928,-2.031261921,5.806817532,-7.331871033,35.61415482,-17.5133934,-3.365488768
929,-1.624171615,4.617073059,-7.691907883,32.90248489,-26.66962433,-5.008172989
930,-1.783088326,3.529084206,-7.003052711,38.81902695,-15.98568439,-11.17743015
931,-2.362562418,4.376821518,-6.598207474,38.93637085,-1.379266381,-21.85261536
932,-2.486609459,4.833313942,-6.696365833,36.77314377,2.676399469,-26.62713051
933,-2.792309999,3.953566551,-6.248106003,41.01513672,-4.135270596,-27.87881088
934,-2.850641966,3.342437029,-6.318049908,49.25074768,-10.38176346,-34.70108414
935,-2.690942287,2.687627792,-6.262834549,58.15093231,-13.64044094,-39.10797501
936,-2.453831911,3.130386353,-7.303662777,59.09266663,-13.23268986,-37.2007103
937,-2.381212711,3.850561619,-7.273255825,62.69548035,-10.4599247,-36.00552368
938,-2.021626949,5.018334389,-7.246077061,70.43005371,-1.722852111,-39.61944199
939,-1.708055735,4.710850716,-6.649729729,72.99042511,3.540743113,-42.15512466
940,-1.983483911,3.521694422,-7.066061497,84.77147675,-1.668053746,-41.68288803
941,-2.104988337,2.398290634,-7.749701023,116.9825211,-9.746576309,-42.44948959
942,-2.171916723,1.537508368,-8.800004005,128.6949921,-10.88783455,-42.34847641
943,-3.07555151,1.106863976,-9.436820984,123.2849426,9.336520195,-40.61860657
944,-3.804200172,0.433184505,-8.668271065,108.5373459,40.61642456,-43.47329712
945,-3.575369596,0.549826503,-6.946344852,98.43666077,69.6781311,-51.74354172
946,-3.426617622,2.441751242,-7.321187973,122.0617828,69.12942505,-55.92953491
947,-2.660253048,3.335057735,-8.849531174,171.1223297,48.85331726,-61.90359116
948,-0.892934203,2.264988899,-9.239543915,181.0101624,49.00702286,-65.13126373
949,-0.30673489,-1.358823299,-8.962226868,179.0612183,54.5465126,-59.50348282
950,-1.356961131,-3.135665894,-10.53308296,194.0965576,35.35332108,-52.1769371
951,-2.68296814,-2.430360317,-12.36824703,213.7741547,27.48487091,-53.33289337
952,-3.491162062,-2.661319017,-11.77676487,218.3705292,27.78360748,-54.23019028
953,-3.283638716,-1.778604746,-11.30351257,194.6654053,28.38081169,-49.73685837
954,-3.017956495,-1.055963278,-11.13951874,179.7471924,32.64276886,-52.2232399
955,-2.512060642,-3.163492441,-9.255579948,158.8647766,40.60855865,-62.36992645
956,-2.002062082,-4.261592388,-9.670002937,154.6175537,32.78649521,-59.88021469
957,-1.499815226,-3.758544207,-10.58079815,157.5711212,29.75486565,-52.7367897
958,-1.385735035,-3.043302536,-10.60889149,148.7333374,33.36437607,-46.40616608
959,-1.790257096,-2.708133221,-9.953983307,130.6191406,35.92210388,-40.21149826
960,-1.780576944,-2.657806635,-9.096042633,105.1377335,25.04354668,-30.03888893
961,-1.540870309,-3.429979801,-8.596213341,82.17556763,14.66466522,-19.44965744
962,-1.967634916,-3.844536543,-8.341673851,59.56725693,11.36671352,-8.334149361
963,-1.895608306,-4.551176071,-7.619808674,35.20095062,9.363067627,-4.879357815
964,-1.857857823,-3.885180712,-7.878062725,23.30202484,-1.454432845,-3.087040901
965,-1.517032862,-3.050005674,-8.106068611,7.377324104,-5.855359554,-0.53649658
966,-1.734562516,-2.609656096,-8.376318932,-13.30661869,-19.09348679,8.555165291
967,-1.152968526,-2.238757133,-7.288160324,-45.50892258,-26.90319633,18.33079338
968,-0.384232432,-2.307087898,-6.774421215,-102.257515,-29.78409958,26.03366852
969,-0.550381303,-3.328880787,-6.92633009,-125.229126,-20.98468018,35.6414566
970,-1.069523215,-4.394638538,-8.19008255,-134.6549072,-27.42236328,40.51751709
971,-1.368643403,-4.110104084,-9.781495094,-143.5175934,-36.15372467,50.64894485
972,-1.665539265,-4.261039257,-10.04020691,-155.3379364,-29.40997124,57.51181412
973,-1.915101528,-4.416992664,-9.559926033,-145.615097,-22.0201416,57.58429337
974,-1.42078197,-4.305856228,-9.047653198,-133.970932,-16.78879929,53.09547806
975,-1.112173319,-3.106097221,-9.137060165,-121.4663544,-12.14141846,49.37333298
976,-0.731168926,-3.313731909,-9.569708824,-99.53916931,-7.531767368,43.99539948
977,-0.777613163,-4.691660881,-9.457131386,-74.57720184,-6.442555428,35.05158615
978,-1.045389891,-3.903421402,-9.206467628,-47.00340271,-3.541810513,23.82872009
979,-0.66697222,-2.463363647,-9.159953117,-35.27890778,-8.265468597,16.79994202
980,-0.050186306,-2.465260744,-9.24027729,-29.09184265,-12.00668907,7.491710186
981,0.049936082,-2.962044239,-9.570238113,-20.43497849,-10.72612,-2.059982061
982,-0.80892086,-2.300091267,-10.2717638,-3.693456411,-4.919651985,-13.79101563
983,-1.335629106,-1.630118847,-10.74429798,8.168681145,11.2207222,-19.32688141
984,-1.062220812,-1.28262651,-10.45745468,8.05636692,25.5258503,-16.54057121
985,-0.643084764,-2.560149908,-9.224469185,-0.738109887,30.30345345,-16.61972618
986,-0.411148399,-1.44669497,-7.917324066,-0.982955396,23.57097054,-24.76507187
987,0.123991176,0.126487121,-7.546822071,-2.673012257,9.676701546,-24.83786392
988,-0.410893083,1.923652887,-7.521345139,-15.34083557,-2.178337097,-11.70182991
989,-1.002629161,1.071780324,-7.673683167,-37.42153168,-5.938680649,0.357049197
990,-1.290588975,-0.186260283,-8.732361794,-34.69415283,-8.199775696,3.973039865
991,-1.496900201,-0.354301006,-9.194393158,-5.601335049,-13.29650879,2.584688187
992,-2.033468962,0.942621887,-9.291482925,0.664246678,-13.39705372,7.045629978
993,-2.250994921,0.917441964,-9.274523735,-14.28688812,-4.748243332,15.33151054
994,-2.184937954,-0.283874482,-9.149748802,-29.92213058,-2.250417471,15.54115009
995,-2.273111343,0.115713254,-8.982391357,-36.28708267,-10.35926151,19.22451973
996,-2.067228079,-0.447210908,-8.775663376,-40.49394989,-17.93127251,22.24436569
997,-1.65608871,-0.948249161,-8.637765884,-45.40366745,-22.5901432,18.00347137
998,-0.894216537,-0.723639011,-7.936815739,-53.43819046,-29.79927254,20.14689064
999,-1.312883735,0.219402283,-8.081683159,-68.41572571,-31.52312279,25.67221451
1000,-1.918341637,1.195766211,-9.243854523,-68.08200836,-26.72980309,31.29688644
1001,-2.186457396,1.182402492,-10.2920208,-63.48939514,-22.18302345,39.8845787
1002,-1.931847572,1.129594207,-10.09865189,-81.70207214,-2.852648497,42.592659
1003,-2.16015029,1.08035326,-9.645014763,-98.32816315,7.790885925,42.43864441
1004,-2.568819284,1.800533652,-9.943591118,-98.920784,10.69491386,45.65853119
1005,-2.619650364,2.593111992,-8.78872776,-114.2960358,23.27101898,49.04682159
1006,-2.256997108,3.901797771,-8.398708344,-151.5114594,27.73664665,51.41393661
1007,-1.541890383,4.304550171,-9.083381653,-182.5856171,16.08068085,59.96587753
1008,-1.888251781,4.837465286,-8.836648941,-210.787323,11.20872784,64.34729767
1009,-1.967639685,4.478531837,-8.116419792,-241.230072,13.90016365,62.47555542
1010,-1.634937167,3.487675428,-8.120702744,-257.4134827,19.37068558,54.26681519
1011,-1.712522745,4.388298512,-7.725229263,-247.8038025,22.73134613,52.3751564
1012,-2.660344601,6.194642067,-8.561445236,-225.4495087,7.469679356,54.86067581
1013,-2.893816233,7.686929703,-8.301988602,-215.3692932,-3.124861002,57.09083176
1014,-2.41896677,8.816396713,-7.608976364,-226.9835815,-10.11997414,57.2491188
1015,-1.55540061,8.444859505,-7.658377171,-230.0030212,-14.70173264,56.96835709
1016,-1.415248871,6.781005859,-7.85968399,-215.022644,-16.9096508,55.96660233
1017,-1.026067257,6.027358532,-7.264933586,-190.1640015,-18.66529274,55.39481354
1018,-0.351949543,5.911226273,-5.601113796,-167.2757263,-14.94928455,53.65723419
1019,0.472367585,6.633511543,-4.081682682,-147.7944183,-17.80398369,47.63172913
1020,0.450795829,6.999689102,-4.380223274,-124.7766953,-35.18630981,40.57447052
1021,0.223184302,6.99496603,-5.348083973,-80.14825439,-57.60541916,35.01426697
1022,-0.478791445,6.42424345,-4.768073559,-43.50188828,-58.3057518,26.07057571
1023,-1.045948267,6.301905155,-4.353434563,-17.21369934,-42.6902771,17.95247078
1024,-1.669131756,6.889710903,-5.050127506,23.91164589,-38.75872803,11.48454857
1025,-0.667970896,6.714972973,-3.742692471,49.76592636,-24.00802803,0.85042119
1026,0.931311905,6.188559532,-1.588217616,39.05363846,-0.873539448,-17.51940346
1027,1.340261221,6.279441833,-1.020488977,42.38995361,9.174704552,-35.43346024
1028,0.134747207,7.760997295,-2.978457928,82.32897186,-3.384461164,-41.90465546
1029,-0.845005274,9.214033127,-4.37879467,136.8925323,-24.01757431,-38.70554733
1030,-0.560749173,9.277529716,-3.012544155,138.3697205,-32.07506561,-32.04458237
1031,-0.06490431,9.447321892,-3.375091314,107.5874176,-29.81880379,-31.68220139
1032,-0.821157098,8.630393982,-5.312703609,100.796463,-26.46310234,-31.14302063
1033,-1.100450993,7.245898724,-6.253683567,120.0637817,-23.13811684,-26.88102913
1034,-0.813152015,6.718182564,-5.946524143,122.7648621,-19.57927704,-25.14808655
1035,-0.28670153,8.072879791,-6.260272026,118.9899673,-14.59303093,-29.45446777
1036,0.01105566,8.580113411,-6.633588314,107.9583054,-12.71158314,-32.96504211
1037,-0.336513788,7.971461296,-7.076922417,95.00361633,-11.19976807,-24.75820351
1038,-0.388996273,6.378876686,-6.504573822,78.45246124,-1.966613173,-16.90654564
1039,0.001841305,5.623726845,-6.319684029,45.17974472,5.272961617,-15.82174587
1040,-0.50345552,5.985300541,-6.992655277,16.25073242,4.64186573,-8.589741707
1041,-1.539400697,6.09448719,-7.846866608,14.74281311,-0.532488406,-2.254521132
1042,-1.994514346,5.993441105,-8.946585655,29.56876945,-2.085303068,3.663120985
1043,-2.093039989,6.34392643,-9.832760811,38.30673599,3.208706141,8.789154053
1044,-1.370987535,6.101332664,-9.019465446,27.7999649,33.97142792,6.106960773
1045,-1.265886426,6.126798153,-7.840371609,17.31757545,53.510952,5.89413166
1046,-1.440266371,6.233808517,-7.456599712,10.47260475,51.50931549,4.985131741
1047,-1.524083614,7.149287224,-7.725630283,4.389449596,31.91431618,3.966915846
1048,-1.458993793,7.573965549,-9.019952774,9.445166588,2.750298977,1.966537476
1049,-0.503388643,5.565964222,-7.904806614,3.950448751,14.14582348,-3.039461613
1050,-0.165725186,3.30317831,-5.369860649,-6.258400917,44.43011475,-19.70997047
1051,-2.216669559,3.202499628,-6.09543848,32.22516632,32.25192642,-31.72988319
1052,-3.145357132,3.634431362,-7.469665527,89.07202911,-11.77118397,-28.99513626
1053,-2.920769691,3.152624607,-7.485993862,82.98777008,-31.7091713,-27.85746574
1054,-2.749206066,2.844602585,-6.91675806,65.80670166,-44.23231888,-32.67274475
1055,-2.347679138,3.155098438,-6.41479969,63.932621,-46.92540741,-39.39254761
1056,-1.421672463,4.300706863,-5.675814152,46.26534653,-31.05434608,-49.56183243
1057,-0.886236429,6.414330482,-7.038397312,45.32350159,-28.02220345,-48.75409317
1058,-0.971169651,5.993093014,-6.616284847,63.94039154,-32.82204056,-45.60180664
1059,-1.309274673,4.099760532,-6.888700485,81.2868576,-36.79948807,-44.58529282
1060,-1.381722331,2.035175323,-7.696370602,100.3006973,-31.28249931,-44.65656662
1061,-1.557855725,1.244302392,-8.687543869,95.98558807,-20.66988373,-44.70949554
1062,-2.537005186,1.301373482,-9.460772514,93.47252655,-12.96631908,-40.12218094
1063,-3.843083143,2.054541349,-9.726467133,107.4506607,2.534613132,-36.64922333
1064,-3.782000303,1.946819425,-8.390939713,114.1016388,17.88500595,-40.98629761
1065,-3.338539362,1.251028299,-6.921758652,113.675148,35.03202057,-46.48648834
1066,-2.388021231,0.803820074,-7.884036064,141.1596222,37.31533813,-53.50674438
1067,-1.305901527,0.274723798,-8.071390152,176.839386,31.65295792,-57.18743515
1068,-0.895588756,0.102173239,-8.799690247,175.6305542,34.01307297,-59.79494476
1069,-1.636559367,0.575852275,-9.993173599,194.8581696,36.36322784,-61.30260086
1070,-2.16799593,-0.014470577,-10.50677586,209.2046356,34.56562805,-59.9978714
1071,-2.654106617,-1.336748958,-10.73810291,195.7653046,29.92595863,-58.11071014
1072,-2.50378561,-2.032378435,-10.72484684,184.3996124,32.36145782,-57.28475952
1073,-2.195263624,-2.738013744,-9.866696358,177.8607025,38.35517883,-56.83384705
1074,-2.390109301,-2.912234306,-9.471583366,184.4647064,36.34662247,-52.09953308
1075,-2.176497936,-2.8140347,-8.182681084,192.7705688,47.79686356,-55.01774216
1076,-2.574476004,-3.510586023,-9.473026276,168.6271667,35.10542679,-54.07943726
1077,-2.368299007,-3.243897676,-10.75291157,133.3457642,29.7744751,-46.79592133
1078,-1.694533944,-2.796711922,-10.49107265,120.265274,29.15293503,-42.49547195
1079,-1.497935176,-1.841794491,-10.58964729,111.5211716,20.08626938,-34.30475235
1080,-1.874891281,-1.87913239,-10.52321053,98.17411041,14.00694561,-21.36172676
1081,-1.859464526,-3.701408625,-8.98936367,64.6913681,11.16929054,-11.39421844
1082,-1.77749145,-3.589087486,-8.687560081,41.16837311,13.59200573,-5.54493618
1083,-1.457018018,-2.945842743,-7.710017204,26.24146461,14.41726112,-1.772532344
1084,-1.493660808,-1.634947062,-7.864714146,-4.213294029,16.36641502,6.567815304
1085,-2.07346034,-1.886171579,-8.571005821,-29.60314369,17.45278549,12.90231037
1086,-2.493955135,-3.59973526,-8.527289391,-43.81155014,5.06240797,15.05451202
1087,-1.484740496,-2.421685219,-8.839612007,-58.19524002,-10.46182442,24.6667614
1088,-0.257488817,-2.700642586,-7.363406181,-94.121521,-7.133255959,30.74282837
1089,-0.437354982,-3.397688627,-6.161989212,-122.0587616,1.624633908,31.30088997
1090,-1.418509722,-3.446481943,-7.689050198,-126.9886551,-13.1630621,38.34389114
1091,-1.735032201,-3.460432529,-9.705835342,-131.2785797,-33.37944794,50.02605057
1092,-1.945825458,-4.222691059,-10.51810169,-140.1882629,-31.88692284,60.54877472
1093,-1.98630774,-4.10087347,-10.09003639,-136.0905151,-17.36740112,58.86117935
1094,-2.127987146,-3.184168339,-9.684444427,-118.3806229,-13.05421162,54.38331985
1095,-1.852353215,-2.717839241,-9.075979233,-105.1889191,-18.24919128,46.6739006
1096,-0.759681046,-2.886245251,-9.78951931,-81.7772522,-19.53854561,35.93677139
1097,-0.048477501,-3.567478657,-9.714580536,-59.33336258,-13.41548443,25.35173035
1098,-0.299908191,-3.397718906,-9.108118057,-40.89029694,-13.53663921,11.7737875
1099,-0.583163142,-2.633397102,-8.884724617,-19.71541977,-24.48468781,0.552102923
1100,-0.09979333,-1.815330148,-9.17719841,-4.151640892,-42.11331558,-8.307250977
1101,-0.379853129,-0.777093291,-10.7604599,5.209306717,-49.74839401,-12.77071285
1102,-1.420507431,-0.807199776,-13.03782082,6.351588726,-39.44012833,-17.41909218
1103,-1.91956532,-0.625385046,-12.2429285,6.952557087,-11.10650826,-27.04032135
1104,-1.030019879,-0.738089204,-9.275391579,0.905867517,17.38786507,-30.32879639
1105,-0.545172632,-2.175265074,-7.913171291,-8.530715942,17.55407524,-28.4355526
1106,-0.444984943,-2.320784807,-7.950495243,4.154080868,11.22601604,-29.8702507
1107,-0.815558553,-1.280924797,-8.044258118,7.95415926,5.163193703,-36.9190979
1108,-0.008833935,-0.438112915,-8.188607216,2.695996046,-1.717094302,-31.79135132
1109,-0.511295021,-0.206577644,-8.114875793,-10.52489758,-4.956440449,-23.87409019
1110,-1.402015924,-0.64375329,-9.027210236,-12.09897804,-8.289964676,-19.27710533
1111,-2.109878063,-1.058765769,-9.841279984,7.913690567,-11.78959751,-17.73222733
1112,-2.589192152,-1.199754119,-9.987135887,8.049832344,-10.77998924,-14.23425102
1113,-2.955491066,-1.426573038,-9.521906853,-6.424452305,-15.97486115,-3.781014442
1114,-2.680670261,-1.599056125,-9.24160099,-21.86439133,-15.76273823,0.020829583
1115,-2.855937958,-0.423431128,-8.572312355,-36.43199539,-13.79899311,4.265491486
1116,-3.258714676,0.584808588,-8.524036407,-49.7530632,-17.86356163,14.21930218
1117,-2.843835354,0.507808626,-8.032986641,-68.53318024,-23.65727425,25.75310898
1118,-2.043958187,-0.004930459,-7.778819084,-94.53253174,-38.31813049,37.62851334
1119,-2.233613491,0.135037035,-8.551490784,-102.9428101,-51.56228638,41.33152771
1120,-2.406925678,0.122759871,-9.088421822,-89.9241333,-52.48726654,40.52603149
1121,-1.969092965,0.868725479,-9.365766525,-80.14522552,-43.99181366,43.90753555
1122,-1.548510909,1.525715709,-8.962081909,-82.33508301,-16.43757248,41.91230011
1123,-1.783027768,1.831570387,-9.060211182,-93.93508911,8.569369316,39.60378265
1124,-2.367185354,1.222769499,-8.910516739,-104.5448608,8.740521431,44.4768486
1125,-3.195673466,1.156517386,-8.439139366,-104.4731064,17.40194511,51.59627533
1126,-3.831125498,1.53997314,-7.881062984,-113.3383636,23.55435562,57.43047714
1127,-3.27158761,2.289695978,-9.28231144,-124.1947403,25.95466805,61.01608276
1128,-2.593946457,2.465830088,-8.367649078,-137.1578217,41.0656929,61.94067001
1129,-2.754031658,3.254995584,-8.729352951,-171.1969452,39.18605423,59.64626694
1130,-2.359594107,5.511259079,-10.48793888,-183.1406097,17.06933022,57.95322037
1131,-1.137086511,6.220451832,-9.669599533,-176.9906464,15.84274387,57.63538361
1132,-0.92044431,6.162508011,-7.457734108,-195.1637573,21.10046577,52.79040909
1133,-1.799698234,5.55105114,-6.68645668,-201.2163849,7.713542938,53.78633499
1134,-2.830141783,5.817485332,-8.266421318,-199.538269,-19.10699272,57.76177597
1135,-2.821026564,6.844972134,-9.113455772,-182.184967,-35.9503746,61.10786057
1136,-2.4259758,7.337955952,-8.614431381,-183.4957886,-24.89673615,62.04058456
1137,-1.845590353,6.617307186,-7.412629128,-204.4535065,-5.730709553,59.98188019
1138,-1.583807588,5.433543205,-6.805896282,-195.5488739,-9.26811409,54.64801025
1139,-1.395150423,4.943939209,-6.44378233,-166.264328,-21.47816658,53.22172928
1140,-1.030025721,4.962799072,-6.443947792,-140.3366394,-16.67759705,50.38496399
1141,0.266675174,6.150389194,-4.879418373,-129.0941467,-1.344546676,35.34854507
1142,0.876984298,7.45339632,-2.946775913,-118.7542343,22.94248009,24.4216423
1143,0.276988417,7.077290058,-2.558363199,-80.97568512,16.49092293,16.51238632
1144,-0.348207146,5.610527515,-3.907809973,-35.75692749,-10.51382256,5.819470882
1145,-1.105243444,4.94816637,-4.621555805,15.00687695,-19.75395203,-1.236545324
1146,-1.95480001,6.047754765,-4.340141773,39.73583603,-11.38206959,-0.801618159
1147,-2.565999508,6.985424995,-4.973714828,54.46810532,-11.44131756,3.804352999
1148,-1.185887337,5.901536942,-4.893519402,66.9436264,-6.07848978,2.224376917
1149,0.419513464,5.561626434,-3.60932827,69.11982727,13.12558651,-13.74951744
1150,0.561646879,5.975506306,-3.210924625,71.53316498,23.44748878,-27.3951149
1151,-0.465106398,8.266274452,-4.00435257,77.17623138,15.94932175,-32.77503586
1152,-1.189486623,10.67953205,-4.285592556,86.21179199,-0.85181427,-32.2203331
1153,-0.988328159,10.45262146,-3.460108995,66.67417145,-10.12371445,-28.41044998
1154,-1.265446544,9.434041977,-4.770030975,49.93834305,-24.80127525,-20.55781174
1155,-1.996400356,8.129022598,-6.733537674,76.74652863,-37.4505806,-15.76059151
1156,-1.825427532,6.830800056,-6.276069641,97.19634247,-39.94498062,-16.46844482
1157,-0.829252064,7.421604633,-5.756258011,86.82263947,-34.6280632,-19.08660889
1158,-0.237104505,8.855705261,-6.348179817,75.53236389,-29.7736454,-17.99141312
1159,-0.243824944,8.789338112,-6.768789768,55.49666214,-18.71607018,-17.28135872
1160,-0.327831984,8.453460693,-7.347157001,32.17153168,-10.48707771,-12.95231152
1161,-0.26928398,8.16532135,-8.896888733,20.58416176,-17.06822777,0.370891988
1162,-0.516521394,5.30342865,-8.468320847,3.893113613,-5.632249355,13.1035614
1163,0.412696302,3.754316568,-6.919847012,-36.97142029,20.38347816,14.8724823
1164,0.268625438,6.648209572,-6.796738625,-45.21800232,27.49124146,14.6164341
1165,-0.171638623,8.348798752,-6.271698475,-30.61191368,18.67580032,16.56385422
1166,-1.379714131,8.12179184,-6.827379704,-10.31968689,-1.633965731,22.58807564
1167,-1.943515897,7.406227589,-8.812909126,11.90659237,-5.330800056,27.02333069
1168,-1.903789759,5.962656975,-7.898545742,19.10048676,7.2754426,20.724823
1169,-1.483385563,5.298063755,-6.724615097,19.69406319,13.24716568,6.483837128
1170,-1.328512669,5.391557217,-6.338607311,40.44596863,3.155137539,-0.876907051
1171,-0.816585124,5.518535614,-5.809277058,48.03191757,-7.632995129,-8.499622345
1172,-0.773978949,4.275582314,-5.199750423,42.30783081,-2.468648434,-21.36318398
1173,-1.449110985,3.907001734,-5.687383652,58.75525665,-1.692091107,-31.81386757
1174,-2.44324255,4.632967949,-6.355433464,89.38375092,-18.9166851,-33.81360626
1175,-2.716282368,4.744851589,-6.820726395,96.52698517,-27.19665718,-38.39693069
1176,-2.262096167,3.968990326,-6.724019051,85.89881134,-18.39266777,-49.77199173
1177,-2.668141842,3.865899801,-6.732300758,84.45694733,-13.07686901,-54.60381317
1178,-3.085981369,3.92525959,-7.017988682,94.65042114,-16.08125687,-53.45272446
1179,-2.258511782,3.486225128,-7.049499989,95.71431732,-15.80658913,-53.17001724
1180,-1.72292304,3.921070337,-6.263445377,94.13560486,-1.103673697,-59.42731857
1181,-1.569732308,4.53721571,-6.268098831,109.5921478,2.297770977,-59.50236893
1182,-1.438012958,3.393347979,-5.352909565,106.6057358,-3.006600618,-57.95652771
1183,-1.777130842,2.329802275,-7.138587952,115.4921036,-3.050449371,-59.87311172
1184,-2.008566856,2.278364182,-8.788907051,133.8317413,-10.07993221,-64.00479889
1185,-2.558594227,2.19575882,-9.964795113,141.2074585,-6.824168682,-57.9603653
1186,-3.343026161,1.733600259,-9.791577339,134.5501709,15.83755302,-54.28512192
1187,-3.873653412,1.682350397,-9.19685173,123.1343079,34.96314621,-51.30579376
1188,-3.788989305,2.183159828,-9.794010162,133.787323,41.0942688,-52.00541306
1189,-3.739697933,2.258193493,-10.27859879,170.605011,34.54099655,-56.29939651
1190,-2.725669146,0.124078766,-8.349959373,186.0871429,35.44776535,-63.71928024
1191,-2.350715876,-2.226507664,-7.621407509,176.7093201,44.46427155,-68.26874542
1192,-2.236837387,-3.092506647,-8.901819229,209.808075,32.91886902,-68.16209412
1193,-2.313902855,-2.386981964,-10.02211475,254.8273621,14.91467476,-66.51176453
1194,-2.584093332,-2.476807833,-11.17091179,274.7341309,8.699347496,-67.95222473
1195,-2.700351238,-3.341492891,-11.45579529,254.9729919,10.62330341,-64.59190369
1196,-3.34465456,-3.834057093,-11.27035522,228.3942719,4.97131443,-57.06922913
1197,-2.967795134,-4.342293739,-10.79648018,208.5703583,15.07426739,-56.88854218
1198,-2.186995029,-4.285723209,-10.72407722,182.4871368,22.27205276,-55.18638992
1199,-1.818062425,-3.939863205,-10.1306982,168.6833191,30.19552612,-51.3499794
1200,-1.443498254,-3.786789894,-8.750595093,161.0972748,45.10242462,-47.73980713
1201,-1.043145299,-4.369870663,-8.836269379,123.8723221,33.2890358,-40.7701149
1202,-0.497171253,-4.99431181,-8.506936073,101.7704849,31.50000954,-36.42362213
1203,-0.93279916,-3.729391098,-10.02859211,79.91599274,16.67468452,-28.55355835
1204,-1.333344221,-3.285110235,-9.34452343,82.04873657,10.94411278,-14.98108959
1205,-2.385091543,-3.641642809,-8.20873642,56.63197327,3.029594183,-6.643055916
1206,-2.044020653,-4.16665554,-7.1427598,25.43843269,4.163591385,-0.758649945
1207,-2.146489859,-4.323279381,-6.085942745,-0.780624032,7.255611897,3.321295261
1208,-1.832805037,-4.912155628,-5.45672226,-31.10101318,14.00645733,7.119725704
1209,-2.32092905,-5.09850359,-6.560587406,-44.01661682,7.560651302,12.41553688
1210,-2.205815315,-6.264760971,-7.710413456,-45.4776001,-4.45326376,11.93208313
1211,-1.53536284,-5.51271677,-8.166121483,-54.63710403,-11.02031898,19.61375999
1212,-0.456271857,-4.556944847,-7.441793442,-68.88710785,-8.676259041,29.86602783
1213,-0.040778719,-5.254311085,-5.987868786,-103.5108795,1.573779941,32.00636292
1214,-0.64570415,-4.769632339,-6.740087509,-121.8364487,4.441119194,32.1652565
1215,-1.183225632,-4.785806179,-8.999898911,-129.0971375,-9.945167542,38.36380005
1216,-1.550333738,-5.562625885,-9.9013834,-132.548233,-14.18093491,44.8183136
1217,-1.561677456,-5.6139884,-10.01358891,-125.2670212,-11.78893948,46.3284111
1218,-1.540486813,-5.256524086,-9.597994804,-97.21968079,-12.31518745,43.65913391
1219,-1.450823188,-4.460673809,-8.795220375,-88.90280914,-11.79490185,37.83177567
1220,-1.360951662,-4.549917221,-7.961978912,-85.51953888,-14.81541634,26.3125782
1221,-0.708720863,-5.128465176,-8.203284264,-73.48973846,-25.8292923,16.99030304
1222,0.027835738,-4.276527882,-8.334666252,-52.49620438,-31.27159882,11.77056122
1223,-0.317061037,-3.661814213,-8.768449783,-46.66396332,-32.71069336,8.363699913
1224,-0.856352031,-4.465064049,-10.07557201,-38.2949295,-33.58322525,8.241404533
1225,-0.591476858,-5.025239944,-11.05249596,-24.18785477,-18.60647011,4.421144485
1226,-0.539946437,-3.59340477,-9.795428276,-8.652291298,2.934043884,0.48324129
1227,-1.90030694,-1.928528905,-8.297776222,-10.93289185,7.705478191,-4.02247715
1228,-1.525870562,-1.41873455,-7.413158417,-24.20882797,-1.668952584,0.06644588
1229,-0.784686208,-1.391734481,-7.693768978,-38.63470078,-7.15809679,2.057396173
1230,-0.004014581,-1.000911951,-8.407735825,-39.9942131,-14.4792223,8.22542572
1231,-0.257296354,-1.041131258,-8.416489601,-52.67457199,-16.06298637,17.34323311
1232,-1.228352666,-1.884646297,-8.465770721,-65.67469788,-10.14895725,17.68672752
1233,-1.897985578,-2.125324249,-8.806277275,-53.93746185,-9.834400177,11.09111977
1234,-2.008666992,-0.910799921,-9.162200928,-48.82542038,-8.705078125,9.75284481
1235,-2.933345079,-0.453361124,-9.422981262,-51.68163681,-3.971980095,10.21358109
1236,-3.202625036,0.145519987,-8.92382431,-57.26817703,-3.368251562,12.78403568
1237,-2.787810087,1.09924078,-8.818210602,-66.18666077,-2.487776279,15.70571327
1238,-2.412006855,1.170739412,-8.299088478,-72.46278381,-4.357306957,20.82316589
1239,-2.348012209,0.635158241,-7.776605129,-79.47272491,-8.438249588,25.69616318
1240,-2.474123001,0.090595976,-8.021945,-85.03643799,-11.91079617,31.26556969
1241,-2.620142698,-0.281528085,-8.377198219,-75.48301697,-15.4447298,37.31926346
1242,-2.438769579,-1.250721335,-8.74403286,-66.22813416,-23.27461243,41.64066315
1243,-2.373694658,-1.329700828,-9.098549843,-68.9302597,-22.46584892,44.18370819
1244,-2.186109543,-0.350343823,-8.870270729,-74.02261353,-13.06738758,47.45403671
1245,-1.897880077,1.255857468,-9.027848244,-90.3249054,-4.817184448,48.47997665
1246,-1.675469398,2.264993668,-9.385448456,-106.2398453,5.058590412,47.91436386
1247,-2.492702723,2.803148031,-9.728988647,-109.1289063,13.75737762,48.43297577
1248,-2.932584763,2.423931122,-9.144579887,-104.3586044,21.24828339,50.72378922
1249,-3.278504133,1.850553989,-7.694220066,-126.6627045,40.84549713,55.05244446
1250,-3.567176342,2.61772728,-8.688119888,-153.8650818,44.43510056,57.21659088
1251,-2.455610514,3.761911869,-9.135782242,-158.387207,35.53062439,56.80974197
1252,-1.779204965,4.388960361,-8.700828552,-155.7432251,35.47571182,59.93805313
1253,-2.366725206,5.039503574,-8.814424515,-161.6246948,29.809412,63.08594513
1254,-2.547728539,5.863152504,-10.00591183,-178.0041199,16.44449615,63.26062012
1255,-2.258157015,5.32424593,-9.966428757,-187.5760498,15.06467438,65.51325226
1256,-2.155179262,5.076412678,-8.391658783,-196.9212494,17.23417664,67.40177155
1257,-2.348258495,5.544516563,-7.836373806,-208.8769684,12.4273262,64.52083588
1258,-2.375432968,5.991179466,-7.961371899,-212.4026947,3.26932478,60.16822433
1259,-1.953660011,6.625424862,-7.381599903,-207.1469421,-2.728990555,57.16850281
1260,-1.417915821,7.596666813,-6.754379749,-198.4191742,-8.052537918,60.72883224
1261,-1.120888352,7.547359467,-7.265048981,-182.4968414,-11.31798649,62.40208435
1262,-0.587528348,6.133697987,-7.650158882,-164.2711945,-13.85665512,62.04331589
1263,0.096370026,5.189557552,-6.394057274,-145.1175385,-10.18863678,57.44298935
1264,1.020805955,5.206823826,-4.094017506,-137.9458008,1.247732162,45.0981636
1265,0.905952573,6.130607128,-2.797365189,-123.8626938,5.945216179,35.03873062
1266,0.558341682,6.744251728,-2.869793892,-82.98443604,-9.911829948,25.57973862
1267,0.160399109,7.634522438,-3.667345524,-32.72946548,-39.21382141,15.35024738
1268,-0.967121601,7.738194466,-3.745325565,0.096733704,-51.69604111,8.973989487
1269,-2.095356703,6.848119259,-3.780380726,17.26998901,-48.03076935,2.342449903
1270,-2.084953785,6.13490963,-4.639875889,47.57022095,-46.38233948,-2.418696404
1271,-0.862266958,6.48108387,-4.233623981,74.75512695,-41.23400879,-7.577763557
1272,0.195699632,6.180131912,-2.678752422,78.52033997,-13.82673168,-25.63734818
1273,1.339585304,6.56770134,-2.328654766,83.43560028,-8.792671204,-45.13483429
1274,1.223512292,8.776247025,-3.922775269,108.9332123,-24.64319611,-39.61856842
1275,0.088783957,9.450356483,-4.688653946,123.849678,-28.54725838,-22.02381897
1276,-0.438002199,8.246875763,-3.44811511,84.55134583,-12.28041553,-30.585783
1277,-0.502934337,8.48522377,-5.560173988,75.51461029,-14.83458328,-41.27626801
1278,-1.07463789,8.850782394,-6.604822636,111.650383,-26.45305252,-38.91422272
1279,-1.710400224,8.664071083,-6.18944788,132.0234375,-35.13566589,-32.8194809
1280,-1.099087358,7.916408539,-6.31867218,126.8479919,-40.87176514,-36.18490982
1281,-0.603546023,7.508529663,-6.936036587,97.95822906,-32.57995987,-39.2839241
1282,-0.265068084,7.202644825,-7.669063091,79.07910156,-28.29938698,-36.7763176
1283,-0.215394139,7.251656055,-7.564441681,55.50078201,-19.41578293,-31.9465847
1284,-0.190794662,6.899320126,-7.093465805,29.18259811,-25.30799294,-24.13125801
1285,-0.618344247,6.761297703,-7.799420357,2.29618001,-25.44887924,-18.14034653
1286,-0.895179927,7.369258881,-8.597967148,-10.35287189,-21.93347931,-13.65280914
1287,-1.331860304,7.327206135,-8.933497429,-6.824639797,-15.34618568,-7.396392345
1288,-1.762824297,7.000779152,-9.172445297,-1.907955289,-11.15522194,-7.597743511
1289,-1.735833883,6.899226665,-9.539957047,14.48186207,-6.090154648,-4.799055576
1290,-1.229602337,6.206231594,-7.64993906,15.05107021,18.16376114,-3.694293499
1291,-1.063824296,6.151338577,-7.093788624,7.70425272,33.99966431,-9.826690674
1292,-1.659924388,5.22511673,-6.765762329,23.50634003,30.29436111,-14.87623787
1293,-1.438901663,5.330651283,-6.25970602,24.50398445,20.81842804,-12.7697649
1294,-0.961758733,6.220517635,-6.585579395,17.54847145,14.13828564,-12.23623848
1295,-1.352510095,5.459711552,-6.864915371,14.32668877,13.13079071,-11.63373089
1296,-1.81249547,4.396658421,-6.562552929,17.42737198,21.31361198,-14.93537998
1297,-2.313558102,4.443486691,-7.025667191,32.0669632,10.62493324,-23.83600998
1298,-2.704505682,4.188171864,-6.916243553,44.76305771,7.37638855,-21.42987633
1299,-2.900963306,3.863640547,-6.63278389,47.15906525,4.260899067,-22.03022003
1300,-3.019056082,2.585938215,-6.926514149,51.15968323,-4.080058575,-23.30272102
1301,-2.531019449,2.778150558,-6.650164127,61.79185486,-17.47053146,-23.36325073
1302,-2.467582226,3.8095994,-6.634448051,66.10064697,-26.63692093,-21.46611595
1303,-1.94165194,4.973391056,-6.333355427,65.89292145,-26.92436028,-28.59360123
1304,-1.400639653,5.37673378,-5.408058167,69.95765686,-18.09361839,-32.01367188
1305,-1.266514659,3.521606684,-5.684464931,71.42835236,-20.73418427,-33.53018951
1306,-1.558624744,2.326732635,-7.527292252,85.44708252,-19.95784187,-37.96800613
1307,-2.702315569,2.867005587,-9.517121315,106.8289413,-16.36781693,-39.58467102
1308,-3.048890352,3.325608969,-9.626327515,116.717453,-5.896448612,-38.56375122
1309,-2.954725266,3.408550262,-9.358430862,109.9171906,12.37125111,-32.66466141
1310,-3.026348352,2.222742081,-7.790314198,94.92773438,31.84231186,-32.22093201
1311,-3.350443602,0.346637398,-7.833111763,94.92256165,35.60210419,-39.53667831
1312,-2.559038162,1.009408474,-8.719815254,129.7844391,41.92582703,-46.90142059
1313,-2.418961763,2.37082386,-8.564230919,169.2840424,52.80218506,-54.83543777
1314,-2.196439743,2.137115002,-7.715062141,181.5917969,50.51476669,-64.08323669
1315,-2.207937717,0.1452066,-8.154025078,200.8285522,35.15742111,-68.84188843
1316,-2.088311672,-0.840666413,-9.605340004,220.8517914,19.88562584,-68.52249908
1317,-2.397903204,-1.166552067,-11.23706436,236.9194794,10.90945244,-62.74676895
1318,-2.45245266,-2.439262867,-11.32158279,227.8620911,12.38872814,-60.26111984
1319,-3.432378769,-3.179197311,-10.69451809,224.1886444,9.716819763,-63.57469177
1320,-3.110944033,-2.987039328,-10.0769434,229.7510986,33.65748978,-71.89857483
1321,-2.509993315,-3.028366804,-9.805323601,193.7103119,35.78985596,-65.91782379
1322,-2.818975449,-2.933023214,-10.737463,172.014389,32.10085297,-63.04212189
1323,-2.354023933,-2.657046318,-10.4962244,175.3391571,35.16495132,-63.37822723
1324,-1.581485152,-2.438331842,-9.949069023,152.3539581,29.08900833,-60.04743195
1325,-1.471194029,-2.564250946,-9.635680199,133.8973999,16.74246597,-49.2424202
1326,-1.740305543,-2.864118814,-8.516062737,111.2012634,7.921635628,-39.1440239
1327,-2.283971548,-3.096476793,-7.848532677,75.78690338,2.23628068,-35.02980042
1328,-1.885648251,-3.68727088,-7.968123913,52.76753235,-6.338607788,-26.90933609
1329,-1.648993492,-4.424081326,-7.412994385,30.478302,-11.67824936,-13.69831944
1330,-1.699184775,-4.474141598,-7.071758747,7.749236584,-11.62331963,-3.151030064
1331,-2.310007095,-4.495107174,-7.279998302,-3.168843985,-12.67570972,4.971409798
1332,-2.491483212,-4.730120659,-7.300586224,-12.95063877,-11.31809711,7.33713007
1333,-2.010471821,-4.581269264,-8.306850433,-21.15270615,-19.40200806,7.899596214
1334,-0.64199996,-4.453069687,-6.802672863,-41.60387421,-22.55690193,14.49593449
1335,-0.066564448,-3.705211639,-6.340759754,-72.03700256,-21.01431465,21.51636696
1336,-0.563027203,-4.929013252,-6.412556171,-98.08834839,-22.46521568,26.64316177
1337,-0.910221457,-5.529772758,-8.047763824,-117.3792191,-35.25666809,34.42154694
1338,-1.459962726,-4.978268147,-9.275536537,-121.2457199,-29.96492195,39.90839005
1339,-1.994273901,-5.140432358,-9.25336647,-119.7982407,-23.89095497,41.34684372
1340,-1.996027112,-4.843080521,-8.265931129,-118.0398788,-12.94808483,38.71395111
1341,-1.80775094,-4.530836105,-8.328885078,-111.4651031,-10.12305927,38.19847488
1342,-1.026476622,-5.029829979,-8.101593971,-94.94178009,-12.85619164,31.82394218
1343,-0.801537931,-4.8291049,-8.26686573,-72.05762482,-17.12086296,26.05833435
1344,-0.927412033,-4.386326313,-8.41460228,-48.98867798,-20.4647274,20.96508408
1345,-0.753905416,-3.98156023,-8.375071526,-42.63436127,-23.06277275,16.99225807
1346,-0.773141384,-3.496499538,-8.86593914,-40.26978683,-23.10200882,9.94036293
1347,-0.960266113,-1.934083819,-9.145979881,-35.60519409,-20.09996796,5.643619537
1348,-0.971691132,-1.103687644,-9.922971725,-37.40748215,-12.54481125,7.072429657
1349,-1.7620368,-1.807945728,-10.47220612,-41.42776108,-2.48755908,8.138735771
1350,-2.18642211,-2.628657579,-10.45419788,-36.21065521,7.654539108,5.926249981
1351,-1.497770071,-2.547427177,-9.997198105,-30.77785683,11.35892296,2.786781073
1352,-1.169962406,-2.352011919,-9.337815285,-24.50339699,20.80987358,-0.445598543
1353,-1.396176219,-1.535642862,-8.416215897,-26.67207336,21.22614479,-0.579348803
1354,-1.309055686,-1.560611129,-8.699028969,-11.74224949,17.40856361,-1.064401269
1355,-0.885627329,-1.028156161,-8.402981758,-0.735110164,7.017913342,-3.522912264
1356,-1.250408173,-0.416653603,-8.076878548,-21.22020149,9.795026779,2.623930216
1357,-1.913526893,-0.98483628,-8.349162102,-42.88766479,14.99522781,9.507448196
1358,-2.583672047,-2.046126604,-9.028216362,-40.89791489,13.6087904,6.810161114
1359,-3.161154985,-1.35830307,-9.866756439,-21.73924637,10.40660763,0.151467413
1360,-3.14460659,0.353222311,-9.759573936,-22.75811386,11.57310581,-1.830070019
1361,-2.972740412,1.186436057,-9.502160072,-32.54412842,8.648950577,4.776295185
1362,-2.88146472,0.748797894,-9.011125565,-44.14006805,4.197164059,8.645967484
1363,-2.674277782,-0.08851172,-8.884618759,-50.49811172,-1.151238203,16.4415741
1364,-2.451108932,-0.744517267,-9.011270523,-49.75404739,-12.73178387,19.39406776
1365,-2.21445632,-0.094935499,-9.435067177,-45.60345459,-16.1904583,21.31096649
1366,-1.760924935,0.064718433,-9.126577377,-46.70048141,-13.9913702,20.81327057
1367,-1.283529758,-0.362586677,-8.308275223,-66.95374298,-9.159861565,19.04168892
1368,-1.367275596,-0.12095847,-9.289095879,-81.64789581,-11.7218647,23.27831459
1369,-1.661438823,0.619055927,-9.817744255,-93.22766113,-13.6092453,28.14700127
1370,-2.416441441,1.202017188,-9.745548248,-87.82458496,-8.630421638,34.6243248
1371,-2.606597662,0.565564513,-8.74575901,-93.01965332,-3.860319614,40.24328232
1372,-2.781378746,0.657037497,-8.319795609,-112.8058548,16.60983086,41.04309845
1373,-2.817170143,2.139082909,-8.997298241,-123.8220291,23.77800751,45.28427887
1374,-2.449771166,3.231435299,-8.846375465,-137.9212494,26.44995499,51.20849991
1375,-2.195025444,2.618190527,-9.084900856,-165.3101501,27.28903961,58.58343506
1376,-2.162653685,2.480332375,-10.30623627,-177.2364197,21.49973297,61.78449249
1377,-1.593218684,3.73148632,-9.451096535,-186.6452332,24.29054832,62.43482971
1378,-1.372083426,4.429584503,-9.431150436,-205.9147339,24.06126213,63.91014862
1379,-1.598057628,4.775657177,-8.431174278,-222.1721191,26.87296104,60.86509323
1380,-1.813907504,6.119828224,-8.015248299,-222.8351593,23.75409698,57.48210907
1381,-2.003678799,7.060559273,-7.622657776,-225.6697235,12.20496559,52.27630997
1382,-1.848867178,7.239108562,-7.755937099,-230.0298157,-1.457327127,49.89741516
1383,-1.719066143,6.217188358,-8.40940094,-215.9429626,-10.04807091,50.09526062
1384,-1.663297772,4.494544983,-7.988375187,-184.6167908,-1.974826932,49.49898911
1385,-1.558447242,4.699417114,-6.937886238,-151.7183838,2.691385269,47.52294922
1386,-0.498387903,5.90743494,-5.739832878,-125.9117966,-0.812576532,48.58224106
1387,0.281355262,6.009323597,-5.351434231,-118.2010803,-2.040511608,44.19795227
1388,0.44466731,5.951069355,-5.237214565,-98.23290253,-3.991471767,36.84045029
1389,0.442354262,6.393056393,-3.864787579,-77.6089859,-4.434372902,31.67578888
1390,0.823506534,6.955962658,-3.203626394,-72.44630432,-11.7891264,27.28165436
1391,0.765287757,7.42138052,-3.759383678,-55.28942108,-25.29751587,23.7533226
1392,0.140303716,7.319847107,-3.959430695,-31.12386131,-29.19961166,22.96826744
1393,-0.629477859,7.756988525,-4.388478279,-19.51670837,-29.87788773,19.48220062
1394,-0.761392593,7.993448734,-4.546780109,-20.60538101,-23.98249435,11.88884068
1395,-1.38218987,7.057919979,-5.025739193,-13.2656908,-19.10449219,11.54558372
1396,-0.750854254,6.014018536,-4.999474049,4.708324432,-24.63319206,10.48173523
1397,0.26606369,6.457467556,-4.473395348,20.11019707,-9.279509544,0.211413994
1398,0.924188316,7.05866766,-3.906665325,38.56703949,-2.189565182,-10.78399563
1399,0.809790432,7.838180542,-3.400994301,40.86062622,-3.326869249,-17.02017975
1400,0.985427618,9.434638977,-4.187313557,40.88332367,-15.82122707,-16.00247574
1401,0.710843921,9.453619957,-3.690576315,38.76519775,-19.44434738,-8.21573925
1402,0.509847522,8.548387527,-3.075596333,13.93208694,-10.77338696,-14.84234428
1403,0.007720127,7.992144585,-4.122306347,37.15295029,-16.15125847,-22.34801483
1404,-0.140748546,7.624766827,-5.236217976,83.83934784,-30.07043076,-24.34297752
1405,-0.409841925,8.103869438,-5.432764053,100.4825058,-41.26963425,-22.54519844
1406,-0.405305624,8.6040802,-5.305161953,92.65499115,-33.67506027,-26.55114937
1407,0.069479756,8.425027847,-5.547748089,72.38024902,-18.44868279,-32.36177444
1408,-0.213782936,8.261992455,-5.950345993,55.11193466,-14.44188213,-30.90995026
1409,-1.046201229,8.181379318,-5.951557159,47.29014587,-11.02162552,-24.96285248
1410,-0.531703413,8.084685326,-6.495793819,39.8005867,-7.393800259,-21.45143318
1411,-0.178198457,6.901565552,-6.509905338,17.53495026,-8.162928581,-18.12598419
1412,-0.733312428,7.359591484,-6.647627831,2.629460335,-10.56932354,-14.23509312
1413,-0.48442927,7.824396133,-6.659626007,-0.433380157,-13.27633095,-11.73021889
1414,-0.347832978,7.8453269,-7.109378338,-17.65137482,-16.03313446,-6.339476109
1415,-0.995290935,8.096262932,-7.540817738,-13.60123634,-15.8979435,-1.687713146
1416,-1.115046382,7.755971432,-7.905193806,17.84010887,-16.32132912,-0.23638007
1417,-1.183402181,6.331501961,-7.358633041,29.57234573,6.343767643,-2.647145271
1418,-0.981094837,5.982794285,-5.956687927,29.6681385,41.56142044,-7.096447945
1419,-1.56036365,5.499687195,-4.76305151,33.47710037,40.27694702,-14.98703003
1420,-1.506727934,6.28295517,-5.91926527,58.48687744,6.473753452,-17.77411842
1421,-1.433701873,6.734516144,-6.200979233,65.40218353,-16.48863983,-19.36959457
1422,-1.195980906,5.645524979,-6.723913193,51.36606598,-23.09290123,-18.68280029
1423,-0.982070506,4.244579315,-6.352823734,50.49097061,-4.671654224,-24.24094772
1424,-1.591677189,4.463825226,-6.102901936,54.33932495,5.302302837,-28.2407341
1425,-2.506264925,5.579971313,-6.74268055,66.98966217,-4.100081444,-29.33202171
1426,-2.426377296,4.833140373,-6.49326849,67.77437592,-7.58093214,-30.85172272
1427,-2.528068781,4.305902481,-6.547709942,62.89241791,-3.988391638,-33.22875977
1428,-2.187422752,4.649758339,-6.53076458,65.36392212,-0.410156906,-34.87805557
1429,-2.148434162,4.56640625,-6.588840008,63.93733978,-1.913764119,-32.60029602
1430,-2.01598525,4.961640835,-6.559715748,67.76174164,-4.668768883,-25.77472878
1431,-1.661988735,5.225439072,-6.24273777,68.20494843,-0.560966849,-24.36135292
1432,-1.696430683,4.623592854,-6.410696983,63.97506332,1.854652762,-24.92192841
1433,-1.558145404,3.846769571,-6.437011242,62.6637001,9.371448517,-24.50593758
1434,-1.832998991,2.638726234,-7.84949255,82.18208313,17.74316406,-26.12252617
1435,-2.161821365,4.380591869,-8.432005882,103.8242264,22.28244781,-24.94734955
1436,-2.194704533,5.326254845,-9.498085022,117.5914459,10.08585358,-29.14354706
1437,-1.935281754,3.542495966,-10.00090599,121.518219,-2.533955336,-33.46323013
1438,-2.056238651,1.6815418,-10.65799522,120.1654282,2.083864927,-27.6686554
1439,-2.651088238,1.250078797,-10.5243063,123.3712463,16.08879471,-24.91880226
1440,-2.966502905,1.335255861,-9.236253738,132.6760712,39.84835434,-29.18986893
1441,-2.544204235,1.00128603,-6.870388508,136.2973938,68.61536407,-42.68247604
1442,-1.73809135,0.559891224,-6.739670753,141.556427,79.17462158,-61.09823608
1443,-2.191342354,-0.010680929,-8.463597298,183.9294281,56.72580719,-70.47901917
1444,-2.025256634,0.621823668,-10.42409706,231.2806702,33.76912308,-67.47758484
1445,-1.68287611,-1.061055183,-10.62226868,250.2342224,24.06920433,-62.01654053
1446,-1.40055418,-2.457821846,-11.18679619,234.2227325,12.81109428,-60.70751572
1447,-1.533869028,-2.808163404,-11.90329075,227.5863495,19.12173843,-60.37842941
1448,-1.955881715,-2.539843082,-12.10788631,234.0325317,35.02124023,-59.60266113
1449,-2.465233564,-2.897377729,-11.21200085,242.6276398,37.9036026,-61.44753265
1450,-1.8956604,-3.507082939,-9.455511093,238.4487915,44.50875473,-57.40577316
1451,-1.428144217,-5.222853184,-8.934865952,198.2640533,32.91628647,-51.03479767
1452,-2.145227671,-4.124856472,-12.52328587,171.4506531,24.27079773,-45.02184296
1453,-1.789340138,-3.543278217,-11.26012993,185.6419525,20.0842247,-43.69659805
1454,-0.911244214,-3.180512428,-10.34345722,174.7092743,17.51422882,-39.99908066
1455,-0.742055237,-2.428842306,-10.10543633,162.1061707,14.07715034,-32.16897964
1456,-1.433808208,-2.760536909,-9.044417381,138.3147278,9.134037971,-29.0559082
1457,-1.092045069,-4.540454865,-7.27537775,108.7368927,4.701822281,-26.58873558
1458,-0.368275762,-5.439497948,-6.201187134,84.64448547,6.926110744,-21.87210655
1459,-0.049364459,-4.864463329,-6.133095264,63.38720322,6.44196558,-13.23764706
1460,-0.397065312,-4.288618088,-5.726483822,36.61403656,5.708873749,-1.472634673
1461,-1.355891466,-4.396876335,-6.133476257,18.25627327,1.043738008,6.204421997
1462,-1.260954857,-4.763749123,-6.39575243,3.53208828,-5.269352913,6.634721756
1463,-0.498533159,-5.091754436,-5.963751793,-17.50959396,-5.491075039,6.784076214
1464,0.570630729,-4.836238384,-6.555844784,-47.0243454,-11.64472675,14.08396816
1465,0.792056978,-5.192748547,-6.309702396,-68.40460205,-6.279683113,22.31190681
1466,0.264835507,-5.012661934,-6.07717371,-93.93730927,-5.675364971,28.30467987
1467,-0.203894675,-4.38269949,-6.660018921,-119.9743652,-10.28957462,34.53252411
1468,-0.593606234,-4.293008804,-8.149370193,-151.4675751,-20.61442947,40.64246368
1469,-0.661439836,-4.758273125,-9.344557762,-171.4617462,-23.29733658,44.88394928
1470,-0.862219632,-4.557282448,-9.718165398,-179.9082642,-18.12339973,45.69340897
1471,-0.955498755,-3.973931313,-9.501164436,-184.9374237,-10.25689983,46.07372284
1472,-0.796620071,-4.998595238,-9.289049149,-177.5453186,-11.00862408,42.26536942
1473,-0.355796188,-6.353057384,-9.700401306,-152.654068,-10.89953518,35.03881454
1474,0.451424539,-6.488158226,-9.396816254,-122.714119,-13.5172205,25.54622841
1475,0.552067935,-5.11625576,-8.642228127,-95.40725708,-24.15341377,23.103302
1476,0.579658985,-3.478855371,-8.299631119,-82.38871765,-34.19210434,22.61613083
1477,0.007666629,-2.640804529,-8.8691082,-78.90956879,-32.80135345,19.1436615
1478,-0.503849328,-2.934727669,-10.02699184,-77.14405823,-25.84877777,12.5171423
1479,-0.0780975,-2.856278896,-10.70878696,-66.74700165,-20.66757584,4.395912647
1480,-0.001068184,-2.837863922,-10.73023796,-56.10157013,-13.18713284,-1.914981246
1481,-0.102501169,-2.12644434,-11.06738949,-42.83215714,-1.626954913,2.229759932
1482,-0.405818254,-2.313267469,-10.07811832,-38.56635284,10.00100327,4.710208416
1483,-0.054127023,-3.269527197,-8.360495567,-39.08272552,18.42960358,2.885206223
1484,0.115704186,-3.870800495,-7.873825073,-30.18414307,4.450201988,-4.026675701
1485,-0.274184912,-1.595253706,-8.822527885,-4.493330479,-6.307147026,-16.32350349
1486,-0.337526441,0.179864407,-9.103147507,1.117887735,-21.31755829,-12.53293324
1487,-0.895097792,0.400238633,-9.48281002,-15.05557442,-29.86953163,-1.477896929
1488,-1.130324721,0.378593326,-9.495864868,-43.25769424,-26.90402985,2.52281642
1489,-1.283109665,0.779531062,-9.379380226,-52.43022156,-21.38952255,5.413657665
1490,-1.886757493,0.660302758,-9.098089218,-47.21373367,-15.24502373,12.86001778
1491,-2.482133865,0.597191989,-8.59588623,-44.47122955,-17.6685257,20.32398033
1492,-2.434442282,0.298848212,-8.460100174,-49.92284012,-19.62368584,26.71929359
1493,-2.46973896,-0.100247301,-8.51483345,-50.97486496,-16.49104881,29.58108521
1494,-2.214888096,-0.8940745,-8.367074013,-46.99695206,-19.93337631,26.46181488
1495,-2.26751852,-0.285232246,-8.317779541,-33.40246964,-27.38722038,27.08270454
1496,-2.233589411,0.589647114,-8.170769691,-26.37782669,-28.4295845,28.4730072
1497,-1.583789945,0.764683723,-8.538485527,-39.59267807,-27.96275902,29.17574501
1498,-0.896778345,0.373085529,-8.757689476,-61.13920975,-18.85868263,27.70746803
1499,-0.792593777,0.947654009,-8.883093834,-79.05609131,-1.005643606,27.88020134
1500,-1.327349424,1.551880121,-8.605934143,-83.87059784,7.977935314,30.92847252
1501,-1.59819901,2.02271533,-8.319080353,-81.23897552,11.25796413,31.5790596
1502,-2.022236109,2.206718445,-8.404523849,-80.2689743,11.82031822,33.24394989
1503,-2.100793123,2.545098782,-9.406998634,-82.77159882,6.583600044,38.91316605
1504,-2.375101328,3.068442106,-9.357848167,-88.56451416,9.273839951,42.89546585
1505,-2.536608219,3.954132795,-8.985910416,-101.9098129,17.44481277,44.20213699
1506,-2.190761566,4.19265604,-8.857056618,-113.206398,18.43953514,49.04088593
1507,-2.053265572,3.391604424,-8.37484169,-136.8059235,20.48590851,52.53749084
1508,-2.024212122,3.701018572,-8.978934288,-149.8414307,11.55141544,57.86778259
1509,-1.762947202,4.984790325,-8.537353516,-165.8466644,4.992262363,65.15810394
1510,-1.842332363,5.598637581,-8.540873528,-186.358429,9.814700127,71.08623505
1511,-1.458054185,4.669247627,-8.246229172,-203.7334747,17.49955368,68.9569931
1512,-1.436589479,4.088937759,-7.695460796,-211.6156616,24.61121559,63.14230728
1513,-1.679789424,5.724032879,-7.633276463,-202.8447418,18.19939041,60.15730286
1514,-1.589756846,7.107993126,-8.290026665,-176.1481171,4.585382938,61.17090988
1515,-0.801238775,7.240580559,-7.910070419,-162.8566742,-4.39614439,60.08708191
1516,-0.244484276,6.432842255,-6.808692455,-162.7081299,-2.586266994,54.09858704
1517,-0.603065789,6.46151638,-6.076330662,-156.8108673,3.436316013,49.88795471
1518,-0.606748343,7.151254654,-5.733825207,-139.5406036,-2.414271116,46.89227676
1519,0.027573679,7.234405518,-5.148425579,-122.3177032,-14.60148144,40.50206757
1520,0.847528994,7.013584137,-4.242008686,-114.1957779,-20.19514847,32.42406082
1521,1.007932782,7.14771986,-3.667448282,-104.3070297,-20.64688492,23.25695992
1522,1.144311428,5.925493717,-3.621693134,-83.89517212,-21.08439827,9.65655899
1523,0.610285878,5.586182117,-4.06945467,-61.03429031,-30.62878418,-3.186054468
1524,-0.959957004,6.093474388,-6.75795269,-6.242428303,-41.16198349,0.518244088
1525,-1.895684838,6.554395199,-7.158549309,69.74640656,-39.45681,1.324456215
1526,-0.778049171,6.565249443,-4.798944473,73.7939682,-10.85156345,-11.202425
1527,0.481889844,5.633719444,-2.533896685,44.78508759,26.40144348,-33.19363022
1528,0.501630127,8.441263199,-2.679249287,44.36030197,21.11900139,-35.9668808
1529,0.43408674,10.55631065,-2.871512175,63.64930344,-7.015325546,-18.01972389
1530,-0.016212465,9.757866859,-2.033519268,55.80496597,-15.91585541,-14.44076347
1531,-0.227818966,9.268389702,-4.108865261,50.09839249,-28.78317833,-23.97054863
1532,-0.8156057,8.68037796,-6.68840456,81.33392334,-42.20019531,-23.55435753
1533,-0.767044961,7.627156258,-7.315628052,102.4030685,-41.20103455,-20.00605965
1534,-0.351796985,6.478570461,-6.574582577,108.1636887,-35.62349319,-19.49386978
1535,-0.081775367,6.582109451,-6.338395596,94.18495941,-22.07846451,-25.32824135
1536,-0.275435507,7.933769226,-6.591618538,78.73004913,-14.74758625,-27.06768227
1537,-0.480757654,8.309073448,-6.557773113,61.96985626,-1.749848604,-24.02192497
1538,-0.759547234,7.621595383,-6.308348179,40.25999451,9.3945961,-19.06649208
1539,-1.481770635,7.444452286,-6.461407185,24.50679398,7.19452858,-7.987801552
1540,-1.317455292,6.718558311,-7.117773056,18.28837776,1.2433635,-0.792240083
1541,-1.984139204,6.491790295,-8.563895226,5.332177162,-9.684565544,7.242539883
1542,-2.084556341,6.242455959,-9.983336449,8.660511017,-17.55146027,14.39167118
1543,-0.941451967,5.553889751,-8.524845123,9.902462006,10.5791378,7.929296494
1544,-0.449812055,6.020364285,-6.431289673,6.614449978,34.39107895,0.25038442
1545,-1.131756783,6.798858166,-6.843100548,10.24424648,32.55758667,-5.755505085
1546,-2.079061031,7.240991116,-7.991722107,22.42816353,10.63301563,-7.442427635
1547,-0.7701841,6.856782913,-8.389237404,22.56620216,-3.698277235,-11.12532425
1548,0.430131942,6.132417679,-7.589679718,16.12439346,8.744721413,-10.49323273
1549,-0.399001062,5.135443211,-6.637622833,15.69916058,17.60635185,-13.7963562
1550,-1.643949628,4.550928593,-6.761065006,26.23621941,1.456182957,-17.41040802
1551,-2.434420347,4.421389103,-7.617433071,44.33050156,-14.90179253,-17.84014702
1552,-2.170874834,3.926184177,-7.774680138,55.05012512,-18.23488998,-18.29068947
1553,-2.258579016,2.920819998,-7.188287735,63.0881691,-16.9752903,-21.09334183
1554,-1.871120095,2.922167063,-6.810584545,66.55480957,-15.16147995,-26.48921967
1555,-1.634533405,3.297899246,-7.094963074,70.95883942,-19.43381882,-27.700037
1556,-1.557767749,2.881596565,-6.922060013,68.81546783,-7.882748604,-30.56572533
1557,-1.453863263,4.342816353,-5.560251713,63.36955261,10.80455875,-40.16520309
1558,-0.941330492,7.027287483,-5.694508076,76.28382111,3.989634037,-39.55759048
1559,-0.850203395,5.978843689,-4.786201,71.83595276,-14.1735487,-37.36668015
1560,-0.810364962,3.46966815,-6.594962597,65.80712891,-15.24956417,-41.66955948
1561,-1.214127541,2.065063,-8.828540802,83.92524719,-21.50772667,-46.17652512
1562,-2.068493843,1.225950122,-9.926410675,103.294838,-18.08876228,-47.18694687
1563,-2.25374794,1.74196434,-10.38562965,109.4929428,-5.62134409,-44.79021072
1564,-2.733213663,2.464892864,-9.147806168,114.5614014,8.08161068,-41.50931168
1565,-3.373537302,2.853901148,-8.201358795,114.3497696,24.68427467,-43.87685776
1566,-3.386096239,2.140666008,-7.767046928,124.9913025,34.93379211,-51.83602905
1567,-1.977791667,0.736976624,-6.856080055,142.3219757,31.7135582,-59.82459641
1568,-0.186478004,1.259516835,-8.576369286,175.3305664,20.7525692,-62.03346634
1569,-0.168397352,-0.397334516,-8.140183449,188.2664185,41.46421051,-65.16472626
1570,-1.351822376,-1.646140456,-8.741156578,183.2371368,39.35308075,-60.10704422
1571,-1.506838202,-2.542386055,-10.01851368,212.3152924,27.49193001,-68.69506836
1572,-2.177902937,-3.220610619,-12.38718414,223.2380676,24.89691162,-70.17668915
1573,-2.363985538,-3.118596554,-12.65915203,224.7294769,30.09346581,-66.04361725
1574,-2.810556173,-3.082959175,-11.85082722,233.7910614,37.17244339,-63.45103836
1575,-3.252513409,-3.682669163,-11.01245403,229.7339935,36.21950531,-64.23797607
1576,-2.719188929,-3.60449481,-10.80970478,206.9501343,38.21376419,-63.13415909
1577,-1.889662623,-3.209180593,-10.85316277,194.7457886,39.17142105,-59.04532623
1578,-1.817033887,-2.683791876,-10.57125568,188.5406189,42.75658798,-52.35171509
1579,-1.654398203,-2.813699722,-9.219076157,162.5857239,30.78763771,-41.44477081
1580,-1.831937075,-2.778652668,-9.916391373,123.0324326,20.08561325,-30.4123764
1581,-2.015264511,-2.86619091,-10.11218643,106.3980103,11.69067097,-21.52936363
1582,-1.449586511,-3.162570953,-9.822114944,86.916008,9.370610237,-16.07784653
1583,-1.571817756,-3.385855198,-8.638307571,68.43473053,16.17455101,-11.91585636
1584,-1.3107903,-3.965688229,-7.157247066,38.04383469,18.62014961,-5.063971043
1585,-0.965069592,-3.847285032,-5.384320259,-3.066047907,14.81827354,2.49007535
1586,-1.636760354,-3.587281227,-6.831264973,-28.50240898,3.951763153,1.877320409
1587,-1.271042109,-3.86990118,-8.048750877,-14.69946671,-11.72494507,-0.445879251
1588,-0.481377244,-4.055827141,-7.803004265,-25.27063942,-18.43078232,3.720634937
1589,0.135269344,-4.348129749,-7.16524744,-52.15171814,-11.92710114,10.60008717
1590,0.531290948,-5.190013885,-6.117065907,-65.99808502,-3.860150576,10.89550018
1591,-0.036338724,-4.877985954,-6.248643398,-78.79743195,-5.646766186,12.93642616
1592,-0.342167854,-3.940148115,-8.01838398,-82.21589661,-16.67188835,22.00557518
1593,-0.721879482,-4.167967796,-8.852960587,-105.5563507,-16.92710686,30.86841965
1594,-0.956791878,-4.028017998,-9.464645386,-121.2384949,-12.73452759,35.55900192
1595,-0.447300345,-3.992188215,-9.108880043,-123.6233521,-8.303595543,35.02346039
1596,-0.373587757,-3.585350513,-8.97889328,-119.1705093,-1.666134596,39.30070877
1597,-0.540938854,-4.936952114,-8.945066452,-111.6458054,-4.11463213,43.5207634
1598,-0.308034152,-5.444365978,-9.634228706,-92.70819092,-8.992300034,38.78787994
1599,0.12860477,-4.617586613,-10.11183929,-58.99664688,-12.05084038,35.07410431
1600,-0.154519111,-4.850441456,-8.821900368,-45.82629013,-9.582811356,28.58987999
1601,-0.186523661,-5.597654819,-8.15463829,-38.51252747,-13.10520649,20.9797802
1602,0.565943658,-4.506280899,-8.261185646,-18.56371307,-22.69482613,9.905099869
1603,0.187222898,-3.139508724,-9.966246605,-5.752666473,-27.09889793,2.013759136
1604,-1.070119977,-2.064220905,-11.82226276,-4.814081192,-21.99788666,-1.73886168
1605,-1.364890456,-2.386717319,-11.43515587,-15.4633112,-7.641235828,-0.513957739
1606,-1.649099231,-3.1935606,-10.74481583,-23.00163269,0.48216638,5.124541283
1607,-0.980563283,-3.480589151,-9.778284073,-12.60170174,-5.107214451,5.522480488
1608,-0.266307652,-2.00160718,-8.677471161,-16.11551476,-9.62240696,-3.221031189
1609,0.347811133,-1.785591841,-8.453325272,-19.6374073,-14.21405888,-10.54047203
1610,0.162613884,-1.250221968,-8.567399979,-17.91101265,-19.79998016,-8.546956062
1611,-0.622975171,0.158988655,-8.525053024,-23.94424438,-19.91632462,-4.290552139
1612,-1.086061835,0.55624193,-8.674139023,-37.40513611,-15.78681087,-0.325526506
1613,-0.999606729,-0.235553145,-8.668049812,-50.28074646,-15.57213497,-1.280826807
1614,-1.384010196,-1.313800931,-8.487163544,-52.99556732,-11.23000431,-3.237952709
1615,-1.47048378,-1.596307755,-8.64177227,-36.51351929,-11.85865498,-5.961157799
1616,-1.698928952,-0.724321723,-8.7203722,-32.11044312,-16.60567474,-3.304591656
1617,-2.288555622,-0.581558347,-8.492667198,-47.93392944,-23.32415771,2.765936852
1618,-2.295251369,-0.741047263,-8.517863274,-63.94227219,-31.00431252,9.575116158
1619,-1.870779276,-0.490662009,-8.932971001,-66.24602509,-35.05586624,18.30311012
1620,-1.791009903,0.50073868,-8.549946785,-70.18164825,-34.77906418,25.8632679
1621,-1.463090539,0.490174413,-8.038201332,-80.25005341,-36.83969498,34.67128754
1622,-1.133616567,0.276708424,-8.140666962,-91.24157715,-42.30922318,40.38072205
1623,-1.40200901,0.465664029,-8.90718174,-104.4733353,-32.52099991,40.08292389
1624,-1.964767575,0.755077362,-9.966421127,-111.5094299,-12.51102161,43.30365753
1625,-2.491947412,0.012889102,-9.253002167,-119.0348053,-2.755173206,43.79972839
1626,-2.675574541,-0.000134811,-8.66577816,-119.447876,8.70624733,47.91708374
1627,-2.714623451,0.870206475,-8.389855385,-121.1325302,12.16661167,52.15734482
1628,-2.867206573,2.279820919,-8.833566666,-119.5097504,14.07619286,55.02317047
1629,-2.550519943,3.567653179,-9.394639969,-118.3553085,17.73480034,55.20224762
1630,-2.051906824,4.008504868,-9.391895294,-133.5363464,15.64960289,62.22318649
1631,-2.654798031,3.521012068,-8.693302155,-164.8258362,20.31518173,67.0643692
1632,-2.668987036,3.390818357,-9.450408936,-189.6187592,6.280146122,69.88280487
1633,-1.864891529,3.081787825,-9.48170948,-187.9077606,6.735694408,66.53598785
1634,-1.465707541,4.002532959,-9.074932098,-180.9863586,7.555011272,61.62677002
1635,-1.037974238,6.516334057,-9.23930645,-170.9693756,6.3522892,57.76581955
1636,-1.061506271,7.382270813,-8.835821152,-179.7624969,-9.71819973,55.31108475
1637,-1.585502148,6.347264767,-9.016219139,-179.4523926,-24.28904343,54.01624298
1638,-2.37250638,5.963919163,-8.193832397,-173.8050232,-24.53908539,57.7273407
1639,-2.036035061,5.79656744,-7.581248283,-165.7486877,-14.85543156,64.34342957
1640,-1.806155205,5.48507309,-6.789819241,-162.3587341,-6.525541306,65.47648621
1641,-1.142776012,4.128951073,-5.692820549,-159.417099,-2.175134182,56.15255737
1642,-0.940316498,4.29656744,-4.261026859,-128.7942963,-4.482618809,44.93265915
1643,-0.411705494,5.842692375,-3.377057791,-98.50665283,-9.333615303,33.66671371
1644,-0.396261752,7.317543983,-4.092664242,-59.48153687,-27.57300758,26.68339157
1645,-0.818692148,7.256142616,-4.394817829,-19.51845551,-37.41570663,17.73311424
1646,-1.632674813,6.605045319,-4.425414562,14.60252476,-37.35802841,11.83180237
1647,-1.752907872,5.988101006,-5.672494411,42.25436401,-43.67018127,9.643009186
1648,-0.589188099,5.859316826,-5.400309086,54.78676987,-26.46209145,1.958737373
1649,0.228326589,5.243585587,-4.221693993,44.68711472,4.505072594,-14.02740383
1650,0.079927504,5.897792816,-4.174264431,59.25872803,10.91016197,-29.04738426
1651,-0.62229234,7.824825764,-4.677475452,91.47963715,-6.532733917,-30.22205734
1652,-1.26118803,8.338206291,-5.194039345,112.8636703,-23.2457962,-22.8659935
1653,-1.171621323,7.430700779,-4.664544582,93.01259613,-22.61084366,-23.40418625
1654,-1.186453223,7.084441662,-5.424498081,76.508255,-12.28232098,-26.54658699
1655,-1.521488428,6.747723103,-6.272969723,95.35511017,-10.34048748,-25.62322044
1656,-1.180154085,6.321327209,-6.442621231,126.633049,-23.11795425,-23.04713058
1657,-0.489656955,6.148890972,-6.829358578,134.9225159,-33.77927399,-22.12427139
1658,-0.318556458,6.414041996,-7.478322983,123.1761551,-34.56493378,-18.01662254
1659,-0.644153059,7.698709965,-8.055508614,99.08207703,-28.42934608,-12.93932247
1660,-0.500356495,7.431851387,-7.63688612,69.69758606,-14.73670578,-10.67281532
1661,-0.081503585,5.960140228,-7.482071877,10.54336739,2.159696579,-11.43741226
1662,-0.718746126,5.549818039,-8.367521286,-15.01226044,6.984187603,-8.65050602
1663,-1.700107813,5.352323055,-8.943701744,7.71710062,0.470921546,-3.215790033
1664,-1.937890649,4.379915714,-8.930131912,27.06958771,2.248717546,-2.417704344
1665,-1.520057321,4.885091782,-10.07768154,36.71522522,8.261423111,-3.101648808
1666,-1.311703682,4.879819393,-9.354067802,52.66506577,27.66005898,-4.787547112
1667,-1.18226397,5.17388916,-7.199014187,46.53253937,58.27666473,-11.62601662
1668,-0.915348768,4.898412704,-6.708178997,18.62401199,69.64992523,-14.9072361
1669,-1.186751723,5.755877972,-8.405914307,2.020864964,46.78645325,-11.55185699
1670,-1.786867261,6.363890648,-9.262435913,16.06902504,7.769078255,-7.86727047
1671,-1.464912415,6.096883297,-9.638274193,19.93474388,-15.18879223,-11.82217503
1672,-1.31863451,3.736525774,-8.676142693,21.96853638,-1.992801428,-17.15806961
1673,-1.496408939,1.888818979,-7.122283936,26.80607224,24.56379128,-28.18752289
1674,-2.595346212,2.674681664,-7.829121113,44.88683319,24.09255409,-37.42767715
1675,-2.931526661,3.239840269,-8.49448204,63.57527924,7.662207127,-37.72650909
1676,-2.661700964,2.281677246,-7.81802702,66.61788177,-6.851716995,-36.99668121
1677,-2.386204481,1.510857463,-7.16366148,72.68595123,-17.73388672,-39.53179169
1678,-1.971172452,2.047406197,-7.243729115,68.44624329,-16.84423447,-42.60951233
1679,-2.323696613,3.287767172,-7.283959866,57.83762741,-10.91081047,-44.90722275
1680,-2.435065508,3.91800046,-6.236848354,52.50886536,-6.297429562,-46.9606781
1681,-1.78730464,4.290538788,-6.133038998,56.0942688,-7.135940075,-48.74190903
1682,-1.306697607,3.528429747,-6.428815365,57.23689651,-27.71636772,-49.46863937
1683,-1.132971168,2.284743786,-7.870537281,70.42877197,-44.73596954,-48.32865524
1684,-1.365839839,1.459395647,-9.714146614,94.77573395,-50.75121307,-47.07014847
1685,-1.977414131,-0.036635414,-10.28329468,108.4133682,-35.62336349,-44.73130035
1686,-3.002503157,-1.056484461,-9.693716049,89.17925262,-16.06275177,-42.76374817
1687,-3.303531647,0.216091812,-9.703233719,80.5376358,5.42888689,-38.82513428
1688,-3.417293549,1.172523022,-8.482729912,97.76661682,32.37818146,-42.52716064
1689,-3.232275724,0.631852567,-7.395226479,108.0742722,45.48957443,-51.45035934
1690,-2.414793015,-0.077769116,-8.216414452,135.6828308,34.01976395,-59.69140244
1691,-1.735959172,-0.174111128,-8.949604988,178.5287628,24.54914284,-63.16329575
1692,-1.443998694,-1.148013473,-8.851211548,194.2874146,28.29659462,-65.02022552
1693,-1.934018016,-1.550580025,-10.33664989,197.635849,11.0589962,-60.04527283
1694,-2.000933886,-2.788049221,-10.84217739,206.4549866,6.969461918,-59.57717133
1695,-2.286023855,-4.132106781,-10.46278954,188.7665405,16.4653492,-56.07910538
1696,-2.569325447,-4.615110397,-10.46616459,174.9118042,26.82386589,-55.25174332
1697,-3.038766861,-4.223507404,-9.793685913,181.1233521,33.29096985,-59.20038605
1698,-2.651053667,-3.546692848,-8.769623756,187.0260925,39.62771606,-60.39845657
1699,-2.266693592,-3.989584208,-7.613258839,173.1920776,42.09195709,-56.42443085
1700,-2.034539223,-4.377346039,-10.41737843,147.5063629,24.19785881,-50.44916534
1701,-1.76949811,-4.834926128,-10.45508671,157.6038361,33.31920624,-46.45258331
1702,-1.371386528,-5.053119659,-9.92066288,147.9918213,30.81624985,-41.59157181
1703,-1.002930403,-4.525694847,-9.623055458,141.3448486,27.51902008,-36.347435
1704,-1.44748199,-3.984778881,-9.73842907,127.3741531,26.2530632,-26.02686882
1705,-1.895690203,-3.120811939,-8.333649635,106.0019455,23.61993599,-18.69507408
1706,-2.032967091,-3.04582119,-6.941392422,76.45998383,26.14558411,-14.59344864
1707,-1.296906114,-2.99305892,-6.282835484,41.4058075,17.61878777,-3.90154624
1708,-1.183215618,-4.263325691,-6.104135513,9.418494225,8.394395828,7.238660336
1709,-1.490185142,-4.58833313,-6.678510189,-21.59679604,-1.347013474,15.52779484
1710,-1.618697047,-4.110180855,-7.230130672,-54.81035614,-13.37330437,21.43264198
1711,-1.19231832,-3.992258072,-8.33031559,-84.30594635,-20.27816963,25.13508606
1712,-0.884636402,-3.752055407,-7.199783325,-109.0999222,-11.44822979,28.90149498
1713,-0.621236205,-4.586459637,-6.983640671,-136.7548218,-9.987425804,33.67856216
1714,-0.590673923,-6.329167366,-6.237902641,-162.7402191,-3.438203573,38.23377228
1715,-1.239959717,-6.280201435,-7.396607876,-162.5285187,-2.11305213,41.2187233
1716,-1.511742949,-6.176816463,-8.189822197,-139.8965149,-15.52227974,43.49196243
1717,-1.288866758,-6.214347839,-8.338365555,-126.1635513,-17.31374741,45.09368896
1718,-1.541546106,-5.383221626,-8.459718704,-112.0775604,-18.20956993,48.60061646
1719,-1.451143861,-4.980751991,-8.302481651,-86.08904266,-19.53727913,47.52713776
1720,-1.459921241,-4.892128944,-8.299611092,-61.76095581,-22.73812866,38.77398682
1721,-1.216894507,-4.036290646,-9.12685585,-42.61364365,-26.31347275,30.86501312
1722,-0.793330967,-4.192480087,-9.072535515,-42.92219162,-18.30299759,27.35811424
1723,-0.661207497,-4.949848652,-9.03722477,-43.55989456,-11.41718864,20.31859589
1724,0.615483463,-4.102456093,-8.965033531,-35.19366837,-19.07351685,15.0692215
1725,0.770361483,-3.288709164,-9.592506409,-51.28653717,-25.36380005,13.22575951
1726,-0.634078324,-2.752830982,-11.74555492,-61.57290649,-23.26016426,10.34773636
1727,-1.547069073,-2.709098577,-11.23125648,-52.30450821,-6.928162098,-1.887623072
1728,-1.551064014,-1.997775555,-9.680488586,-36.98629761,3.400788307,-10.67681122
1729,-1.519041419,-1.654839039,-9.054291725,-28.3843174,-0.807084501,-11.98661804
1730,-0.776759148,-1.092565298,-9.31139183,-28.04553032,-2.432099819,-9.916705132
1731,-0.53754276,-0.10248924,-8.678595543,-40.73784256,2.256229877,-4.649027348
1732,-0.991703987,-0.334102482,-8.788018227,-51.24489975,1.782205582,-2.144583702
1733,-0.809942961,-0.985925555,-9.104818344,-49.33556747,1.370579243,4.658816814
1734,-1.076332927,-0.863446832,-9.132281303,-50.0017662,2.786219835,9.924518585
1735,-2.257152557,-0.306554973,-9.326968193,-47.34627914,0.201848909,9.019104958
1736,-2.846675634,0.391472638,-9.134683609,-32.23724747,-6.618937016,7.18572855
1737,-2.417176008,-0.278381437,-9.231142044,-28.40193367,-18.16408157,9.97472477
1738,-2.439821243,-0.847586691,-9.397597313,-30.11128235,-22.15709686,14.35585403
1739,-2.480978727,-0.751819193,-9.415065765,-33.83329391,-20.21715355,15.14886761
1740,-2.808634996,-0.106527984,-9.112858772,-40.18907166,-16.74529839,14.75879574
1741,-2.754125595,0.102673061,-8.790225029,-44.24446869,-24.07372475,18.66604233
1742,-2.060659647,-0.548475504,-9.090983391,-37.56721115,-35.01214218,22.86212921
1743,-2.057108402,-0.577828765,-8.637498856,-31.86453629,-40.40899277,22.95835876
1744,-1.46192646,0.021666955,-9.364076614,-45.0381279,-41.67196655,26.30636406
1745,-1.402827978,-0.341818303,-8.986876488,-57.25273514,-23.41707993,27.27160263
1746,-1.908345222,-1.09497416,-7.81876421,-67.36513519,-3.990504265,23.20749855
1747,-2.200699568,-0.075119779,-7.327037811,-69.92237091,-1.623390555,26.68851852
1748,-2.159080744,0.977512002,-7.725260735,-69.22699738,-3.110932589,34.17564392
1749,-2.477981806,1.659071684,-8.003559113,-75.5118103,3.438053608,44.32194519
1750,-3.369655371,1.464193702,-8.248491287,-93.86254883,8.449521065,52.42634201
1751,-3.598955631,1.314298987,-9.153086662,-113.6949921,16.06500435,57.06409454
1752,-2.696984053,1.679006577,-9.567785263,-127.8390121,25.36525345,61.09906006
1753,-2.344622374,2.972090483,-9.595554352,-145.2459717,31.85139847,63.46605682
1754,-2.313163757,4.343657494,-10.36850929,-166.1255035,24.19728279,65.27055359
1755,-2.072099447,4.481173992,-9.448404312,-188.6014252,20.5127964,68.04084778
1756,-2.067457914,3.638534546,-9.269018173,-198.0026093,23.54008102,69.10826111
1757,-2.115377903,3.830652475,-9.006525993,-193.6388702,30.97510719,61.09014893
1758,-2.561441898,5.274985313,-9.07162571,-190.9211121,26.05575371,58.84809875
1759,-2.719088316,6.363731384,-8.725769043,-193.0153198,15.04484558,64.54909515
1760,-2.374068022,6.12546587,-9.027543068,-194.1683044,7.531589985,65.99027252
1761,-2.180747747,5.153571129,-8.859836578,-188.2141876,10.12672615,58.87775421
1762,-1.731406093,5.610166073,-8.566584587,-177.3299255,16.28987694,53.75102997
1763,-1.132918119,6.175441265,-7.838624477,-161.42836,20.64705849,52.79397964
1764,-0.488587558,5.996120453,-5.844758987,-151.0556946,21.93572044,48.58417892
1765,-0.187190175,6.135876179,-4.960157871,-135.4944458,12.50492096,42.64512253
1766,0.368901759,6.029263973,-4.891130447,-112.0303574,-6.596292019,39.91022491
1767,0.673064291,6.488493919,-5.26912117,-94.49060059,-18.52266884,30.38368797
1768,0.035842821,6.880687237,-5.502345562,-58.88845062,-25.41414261,23.27063942
1769,-1.107724309,6.61832428,-4.579961777,-24.06972694,-17.49102592,18.40619087
1770,-1.781559587,5.822566032,-4.449622154,6.495275021,-20.06513977,15.07882786
1771,-1.761718631,4.756978989,-4.643425941,38.61660004,-38.80552673,15.16630363
1772,-0.71427232,4.676603317,-4.150723934,52.00748825,-29.88220787,5.355677605
1773,0.24062638,4.882062912,-3.441579342,56.33064651,-8.040525436,-14.01054573
1774,0.221913293,5.691361904,-3.499448061,67.28541565,1.108303189,-34.81710815
1775,-0.455915511,8.6058321,-5.362091541,101.207077,-18.30737686,-35.14538193
1776,-0.874680221,9.461645126,-5.119767189,111.0865097,-34.90505981,-24.38106155
1777,-0.937008321,8.375757217,-4.120956421,69.54102325,-24.30572319,-25.32444
1778,-1.162540078,7.094684124,-5.670071125,56.20607376,-26.73753357,-25.60534668
1779,-1.261927605,7.135892868,-7.320848942,75.12436676,-34.06642532,-22.90407181
1780,-1.330893993,6.640506744,-6.89443922,95.60009766,-28.84171295,-22.09289169
1781,-1.187757492,6.650136471,-6.201623917,92.97158051,-20.2505455,-27.09838867
1782,-1.125721931,8.361388206,-7.759184361,89.35556793,-22.67192078,-24.44538879
1783,-0.243798822,8.279628754,-7.766566753,79.15105438,-23.12798691,-21.98431396
1784,1.047592759,6.558167934,-6.824420929,29.43069839,-15.80034351,-21.44039345
1785,0.38640058,5.304382324,-6.848808289,-3.397067308,-9.378638268,-16.24884224
1786,-0.701761603,5.307466507,-7.303956509,-3.863038063,-2.414421082,-12.96545124
1787,-1.401448965,6.087852478,-8.761174202,3.537263155,-8.207147598,-10.29934692
1788,-0.958510518,5.881659508,-8.943558693,5.571793556,-0.369949877,-3.200422525
1789,-1.048737168,5.829464436,-8.546782494,6.199055672,17.77307701,0.233914658
1790,-0.695647299,4.859959126,-7.72176075,2.180087328,25.57325363,-2.130404949
1791,-1.165170908,4.23836422,-7.998215199,-8.237106323,34.22401047,1.162264585
1792,-1.764995813,5.168540001,-8.722466469,14.59704018,38.39337921,-0.546130061
1793,-1.569274187,5.353167534,-8.13625145,36.14382172,38.10692215,-2.868342876
1794,-1.354686618,6.046604156,-7.437136173,40.16555786,31.96936035,-11.29760265
1795,-1.428767323,7.107096672,-7.347008705,34.28938293,26.03069878,-17.61554909
1796,-1.131942034,5.780930996,-7.760849476,31.4175415,11.98466969,-15.85825634
1797,-1.090601087,3.759688139,-6.568058968,33.39877319,17.43800163,-20.17374229
1798,-1.946780562,3.43350172,-6.394468307,54.72213745,17.31761551,-27.63225555
1799,-2.164173126,4.183795452,-7.171566486,80.79022217,-4.960952282,-30.38183975
1800,-2.340904474,4.00505352,-7.309411526,73.96943665,-21.32854271,-30.58821678
1801,-2.283185005,3.49874568,-6.989037037,59.63912964,-26.63232613,-33.86288834
1802,-2.09454751,3.28587079,-7.195690155,51.32979965,-27.33749008,-34.56464386
1803,-2.078798532,3.506846428,-7.876012325,42.115242,-23.04099464,-31.90599251
1804,-2.093779325,2.943412542,-7.38916111,40.18267059,-5.895432472,-31.64758682
1805,-1.608211994,3.238034248,-6.615268707,37.08267212,15.83050251,-37.29050446
1806,-0.738091409,4.114619732,-6.528458595,41.85020447,18.80678749,-37.88033676
1807,-0.353030175,4.039615154,-6.7803545,58.10983658,7.738461018,-41.55719376
1808,-0.48360163,3.295068026,-8.38051033,84.44696045,-7.225241184,-48.75193787
1809,-1.291668653,2.144119263,-10.4116497,105.0324707,-13.7157135,-50.41918182
1810,-2.472206831,0.859274209,-10.86319447,117.9501801,-8.316163063,-51.77293396
1811,-3.117342949,0.764205158,-10.18020439,122.789917,4.652142525,-53.18110657
1812,-3.471208096,1.086387753,-8.877031326,119.2914963,18.49929428,-50.73522186
1813,-3.428801298,1.009302616,-8.012026787,126.4251328,20.75458908,-57.81577682
1814,-2.075367212,0.460405529,-9.208043098,163.3479156,24.29105186,-73.23465729
1815,-1.454049587,-0.038023531,-8.498713493,214.1517487,35.23481369,-79.58321381
1816,-2.236005306,-1.495829821,-7.292730808,217.6898804,47.17495346,-86.22790527
1817,-2.531765223,-2.107624054,-9.217937469,231.6325836,52.20517349,-84.37527466
1818,-1.840330124,-2.873989105,-10.08146286,274.7081909,33.25631714,-77.091362
1819,-1.742722034,-3.794208527,-10.5183754,266.397522,21.76239967,-72.17706299
1820,-1.933445334,-3.184734821,-12.5655899,232.9539642,18.54066086,-69.52201843
1821,-1.944058061,-3.084126472,-12.06710529,231.8326874,26.16709709,-62.89476013
1822,-2.257156134,-3.543711901,-10.56566334,218.0296783,27.08516693,-59.79693985
1823,-1.599308729,-4.563979626,-9.732848167,210.741272,25.60505867,-60.88578796
1824,-0.348230541,-5.176556587,-9.590946198,190.2743683,28.34161186,-57.31763077
1825,-0.022994705,-4.944454193,-9.284893036,174.3603363,31.3742218,-51.9001236
1826,-0.700387299,-4.743478775,-8.483210564,165.5445404,32.62431717,-46.14030838
1827,-0.990791261,-4.480860233,-7.797750473,143.5945892,27.14967537,-41.26457977
1828,-0.99657619,-4.384217739,-8.28848362,121.6886215,17.08218193,-34.06904602
1829,-0.722257197,-5.625077248,-8.010521889,103.7407913,14.74738407,-27.33470726
1830,-0.68404609,-6.226561546,-6.694547653,79.33905792,16.39090538,-20.50591087
1831,-0.539626539,-5.187953472,-6.235767365,53.68291855,14.37494946,-10.85250473
1832,-0.906738102,-4.583630085,-5.865355015,31.97271729,7.663021564,0.284410864
1833,-1.785956979,-4.63802433,-6.054820538,6.160003662,-5.849251747,8.304876328
1834,-1.853800535,-4.219631672,-6.792679787,-20.81463242,-18.53204727,14.04825306
1835,-1.093843937,-4.538881302,-6.986686707,-57.71055603,-19.95329666,22.54572868
1836,-0.294958144,-4.787436485,-6.460394859,-94.65686798,-20.15361023,33.3757019
1837,0.119812071,-5.266591072,-5.987264156,-141.3750153,-16.45654106,41.75609589
1838,0.107862905,-6.165338516,-5.782254696,-171.9939575,-8.63489151,45.39655304
1839,-0.500450492,-6.507920742,-6.484276772,-175.4210968,-6.013442993,50.7101059
1840,-1.121369481,-5.588228703,-8.095768929,-161.1243591,-22.15386581,54.56812286
1841,-1.11852026,-5.088684082,-9.091453552,-163.4604187,-25.02638054,56.69709396
1842,-1.410257339,-5.114573956,-9.189963341,-158.8542175,-17.42979431,54.03471375
1843,-1.138121009,-4.362179756,-9.306292534,-136.7328796,-14.82398319,52.5340271
1844,-0.52594322,-4.284152031,-9.426005363,-120.9670486,-17.72789001,51.18522644
1845,-0.799005389,-4.504605293,-10.28577042,-114.1727142,-17.18297768,40.64781952
1846,-0.589060843,-4.995234489,-10.30901432,-98.41989136,-17.5785141,30.65855789
1847,0.094012253,-5.562151909,-9.791211128,-75.78016663,-22.89416504,26.01278687
1848,0.23012276,-4.726912022,-9.065937996,-57.23786926,-21.96375084,20.74284554
1849,-0.197450459,-4.335621357,-8.736204147,-51.3847084,-13.73366833,17.58103943
1850,-0.830897391,-3.829110861,-10.3581686,-38.11727142,-17.10673523,12.91268635
1851,-0.99767071,-3.319175005,-10.50353146,-6.513554573,-7.788990498,-2.576984167
1852,-0.719229698,-2.470428467,-8.998047829,12.53420544,3.358166933,-8.238306046
1853,-1.11433351,-2.094793797,-8.197729111,16.35400581,3.353904009,-9.09988308
1854,-1.352309823,-1.429461956,-7.912866592,4.438242435,-2.910872459,-14.24433422
1855,-0.682097137,-1.401849985,-8.35118866,-3.792400599,-11.14814663,-14.20384789
1856,-0.321792424,-1.444303632,-8.469295502,-7.614097595,-7.911551476,-10.82495975
1857,-0.438132852,-0.56616807,-8.743551254,-21.17528152,-2.351108551,0.723246157
1858,-1.603200436,-0.126110464,-9.070990562,-32.26734924,-0.844889522,7.963628292
1859,-2.215240955,-0.006000116,-9.450947762,-38.07398224,-4.996105194,12.73066521
1860,-1.950811148,-1.184574246,-9.55877018,-44.80637741,-9.391345978,17.26853943
1861,-2.207400799,-1.432320952,-9.947847366,-45.58872223,-9.358202934,23.67030334
1862,-2.52516818,-0.59736383,-10.09530067,-45.15372086,2.952589512,25.05721092
1863,-2.692292452,-0.483894199,-9.981831551,-54.56227112,3.214554548,21.57955742
1864,-2.695278645,-0.368437946,-9.798015594,-66.40672302,-7.614328384,23.05596352
1865,-2.424092293,-0.061342239,-9.172880173,-71.36616516,-12.84815025,31.19995689
1866,-1.952564836,-0.266992688,-8.738098145,-83.33312225,-11.8196497,31.2121582
1867,-1.161227226,-0.843700767,-8.263029099,-98.5112381,-6.436135292,29.29434013
1868,-1.216649532,-1.13034451,-8.017721176,-100.987915,-11.55554008,31.44720268
1869,-1.6787045,-0.870928586,-7.802449703,-93.52992249,-14.85642529,38.23748398
1870,-1.725753427,-0.5590657,-7.773684025,-98.18884277,-16.51193619,43.39395523
1871,-2.124403,0.148041621,-7.906689644,-111.6407852,-19.37177467,51.19937134
1872,-2.393773079,1.251214266,-8.782519341,-115.9165878,-18.93484306,59.18559647
1873,-2.88150692,1.761249542,-10.03660393,-105.3384247,-8.062867165,61.20022202
1874,-2.530966282,1.544239283,-9.155496597,-99.14836121,7.137134552,61.18484879
1875,-2.259510994,1.832849264,-7.586294651,-115.4542007,25.11573029,58.54523849
1876,-1.778829336,3.167227983,-8.907441139,-130.4356689,20.87031937,58.45730972
1877,-1.958225846,3.928862572,-9.163995743,-135.4281616,14.9535656,62.6577301
1878,-2.042816639,4.405704021,-8.2980299,-166.4363861,8.696251869,67.30871582
1879,-1.428207994,4.959341049,-8.494537354,-192.1277618,6.948443413,68.10968018
1880,-0.954451919,4.533747673,-7.77841711,-194.4776001,16.12133598,64.67868042
1881,-1.6051898,4.644250393,-7.16057682,-209.2211761,16.36454964,57.17815781
1882,-2.303092718,7.590305805,-8.501723289,-245.1503601,8.082371712,55.87453079
1883,-2.433348417,7.882946014,-9.194730759,-244.846817,1.094924212,56.49465179
1884,-2.399151325,6.662027359,-7.760634899,-226.2871246,-11.08755779,58.38404846
1885,-1.894801259,6.261426449,-7.088175297,-216.3028107,-15.43462563,54.24729919
1886,-1.208823204,6.218934059,-6.475244522,-187.7648926,-17.76846123,46.63877869
1887,-0.569786012,6.150048733,-5.644299507,-165.8057709,-17.80059242,46.29656601
1888,0.210124299,5.87125349,-5.725601673,-143.253006,-23.56489372,42.82059479
1889,0.499119252,5.882816792,-4.840912342,-113.1274185,-26.30413628,37.43090439
1890,0.163733765,5.917119026,-3.984400749,-75.307724,-33.10073471,31.71147156
1891,-0.155503497,6.102989674,-4.334255219,-37.54318237,-50.18862152,26.82276917
1892,-0.407408953,6.355789185,-4.024341106,-13.77500343,-49.56029892,20.35058975
1893,-1.097905755,6.758666039,-3.98459816,16.55167007,-40.16606903,13.39454842
1894,-1.694490314,6.864209175,-4.761358738,60.81007004,-30.03969765,9.167865753
1895,-0.906261384,6.588222027,-5.160132408,86.23958588,-19.30080223,-2.530911684
1896,0.291800559,6.776515484,-4.639748573,80.4303894,2.700037003,-25.00537109
1897,0.173109427,7.501970768,-4.062126637,80.49994659,30.14025879,-47.02055359
1898,-0.518906653,9.337349892,-4.264659882,77.17373657,41.7557869,-60.75642395
1899,-0.863587677,11.08748436,-6.262548923,101.9299545,11.1938839,-49.71273804
1900,-1.331593752,10.37698841,-4.987084389,82.92514801,-7.479158878,-33.25519943
1901,-2.103717089,7.708046913,-4.140556335,54.19023895,-7.32424736,-32.28069687
1902,-1.921383619,6.677454472,-5.921003342,73.51360321,-18.65889931,-28.46141243
1903,-1.362843633,6.155601978,-6.506385803,93.75370026,-26.42358589,-16.69686699
1904,-1.045023322,6.515822411,-6.376598358,66.56851196,-10.93349361,-17.81706047
1905,-0.844715357,8.317408562,-6.951537132,41.29692078,-1.390434384,-22.12046242
1906,-0.916729927,8.617571831,-6.645395279,46.79325867,-5.611535549,-16.45288467
1907,-0.773154795,7.641207695,-6.422084332,43.51221848,-11.10716152,-12.37159157
1908,-0.386688501,7.129477024,-7.364114761,9.842481613,-15.49055672,-9.309563637
1909,-0.226414055,6.37274456,-7.140876293,-3.211499929,-4.506426811,-5.766495228
1910,-0.104198396,6.020669937,-6.364374638,-9.878399849,1.981123686,-5.392512321
1911,0.44590798,6.51453352,-6.631424427,-22.24884605,-5.986608982,-6.870889664
1912,-0.558665514,7.681169987,-8.024303436,-15.71423721,-30.23023033,0.39636454
1913,-1.538905621,7.484955788,-9.178776741,1.632875204,-36.00717163,7.966299057
1914,-1.717097282,5.454025745,-10.02738667,30.34058952,-8.756399155,7.803353786
1915,-1.307626009,4.485889435,-8.134059906,37.13489914,33.7474823,-2.98144722
1916,-1.211672068,5.4293046,-6.135483265,29.95389748,65.52091217,-17.44874573
1917,-1.820918679,7.220923901,-6.55963707,43.84894562,55.80005264,-18.64963722
1918,-2.207660437,5.872326851,-6.63676548,71.57348633,22.9770546,-12.48424339
1919,-2.021926403,5.088172436,-7.268085957,84.50955963,-14.14078712,-12.24218082
1920,-1.297375202,3.769597054,-7.798446655,91.64028168,-30.9402523,-16.15263176
1921,-1.357596159,3.329847813,-8.042171478,85.43470001,-22.26028252,-21.00028229
1922,-1.74258101,3.067427397,-7.87630415,82.37837982,0.900765598,-30.85359001
1923,-1.937803745,3.53164959,-7.839448929,89.20549774,17.39309311,-34.32898331
1924,-2.988872766,4.285608768,-7.990492821,93.96015167,10.84620857,-31.11235237
1925,-2.879066467,3.606517792,-7.508563042,89.13798523,4.758729458,-33.27671432
1926,-2.373858452,2.572030783,-6.980630875,80.94037628,6.893942833,-34.87700272
1927,-2.152129889,2.639861822,-7.238684654,77.07307434,3.740796089,-34.05648422
1928,-2.607541084,2.596132994,-7.699429512,71.77078247,-11.02837658,-23.7376461
1929,-2.224601984,3.207373142,-7.85645628,69.71411896,-3.27913928,-18.92627907
1930,-0.616978407,4.550616741,-7.038987637,80.57602692,2.901831865,-26.01496315
1931,-0.13710998,4.299620628,-6.50083065,86.87225342,-3.286064386,-26.94717789
1932,-1.243118644,2.969047785,-6.869130611,86.07318115,-6.134150028,-27.62190437
1933,-1.789695978,1.695177674,-7.828897476,94.49356079,-11.50209713,-36.19055176
1934,-2.484835386,1.3181113,-9.596960068,105.1641617,-19.17938423,-38.85604858
1935,-2.90308094,1.613513827,-10.71878719,121.1846085,-10.6484642,-38.56483841
1936,-3.588446617,1.155732512,-11.07146549,123.8092728,11.5031023,-34.56225967
1937,-3.537369967,-0.172610641,-10.67550373,124.0406189,21.67740822,-31.81847
1938,-2.620610714,-0.496353328,-9.594374657,128.960022,38.1786232,-31.64648056
1939,-1.768890738,-1.436162233,-6.882205963,115.5280991,59.46556091,-37.39875412
1940,-1.49612391,-0.802192926,-7.859939575,126.5885391,54.94814682,-47.01456451
1941,-1.126340747,0.324126542,-8.677023888,183.5437927,50.20475006,-52.28946686
1942,-1.508159161,-0.214494839,-9.077394485,205.6716309,48.37233353,-50.67932129
1943,-1.627881527,-2.798990488,-9.686775208,200.7008209,28.16861153,-49.38336563
1944,-1.795252562,-4.662675858,-10.14423847,201.2288055,30.15307236,-50.26982117
1945,-2.044469118,-4.166548729,-10.43163395,193.1245728,31.47062302,-47.13163757
1946,-2.367191792,-2.992060184,-10.14565945,195.542038,27.98157692,-45.64110184
1947,-2.743096352,-2.42109108,-8.221154213,186.2437744,37.18943787,-45.16732025
1948,-2.981503963,-3.107210875,-8.14702034,145.2649536,26.02020073,-44.02431107
1949,-2.292802811,-3.818244457,-10.8068924,132.900116,4.776899815,-43.78438568
1950,-0.740547955,-4.533927441,-10.10300446,138.8672485,8.596434593,-41.69589996
1951,-0.208760798,-4.083236217,-9.661400795,127.2850952,14.35878754,-38.24572754
1952,-0.345715255,-3.651436329,-8.998914719,113.0359573,20.35189056,-35.20706177
1953,-0.533832014,-3.667686462,-7.302298069,89.37483215,15.61475563,-30.35557747
1954,0.004961333,-3.64422226,-6.63518095,46.21410751,2.816021442,-24.0830822
1955,-0.059489679,-3.286677837,-8.278973579,42.05723572,-17.44238281,-11.71539021
1956,-0.275724709,-3.370122194,-8.533043861,51.40651321,-30.37140656,1.38657999
1957,-0.961086273,-4.809473038,-8.067897797,33.3947258,-31.18386459,12.57409763
1958,-1.548349977,-5.81031847,-7.541358948,3.916043282,-19.6749897,17.29135895
1959,-1.657557964,-5.741582394,-7.420456409,-23.87629318,-5.506723881,19.25027084
1960,-1.831683636,-5.097959042,-7.392589092,-36.4981842,4.385361671,17.27555275
1961,-1.562947035,-4.186239719,-7.703135967,-35.44729233,5.272923946,20.53582954
1962,-1.524251342,-4.563824654,-7.482226849,-48.53453445,-6.777729034,24.73364258
1963,-0.696389616,-5.087041378,-7.904883862,-77.27192688,-18.90908241,27.46748924
1964,0.820489585,-5.234414577,-6.668253899,-104.9424362,-4.40345192,25.0819664
1965,0.163294107,-5.190484047,-5.367221355,-121.267662,9.982821465,21.15305519
1966,-1.360154867,-3.478935003,-8.357392311,-123.8414154,-27.14129639,31.09916306
1967,-1.373213291,-2.950986147,-11.34623909,-148.7588196,-53.26734543,48.20121002
1968,-1.499824286,-4.256680012,-11.93600655,-183.4343414,-38.92332077,54.71890259
1969,-1.292273402,-5.204792976,-11.2912693,-167.3569946,-20.16407013,52.27274704
1970,-1.940451026,-4.037553787,-9.771004677,-130.6954193,-22.93803215,50.99372864
1971,-1.676477194,-3.373340368,-8.468007088,-107.6950531,-39.66239929,51.54375458
1972,-0.000799358,-2.670037746,-8.028258324,-91.99112701,-55.39716339,39.63323593
1973,0.77313596,-3.187607288,-7.6417799,-78.67009735,-59.66894913,33.97560883
1974,-0.289283454,-4.461532593,-7.916008472,-78.78631592,-61.02521515,30.26509094
1975,-1.076024652,-4.303946972,-8.900491714,-58.74170303,-63.64622879,24.50890732
1976,-1.799729824,-3.88638258,-10.87972832,-49.59443283,-36.83021927,16.11704063
1977,-1.818523884,-2.100373268,-11.46269894,-35.93560791,-11.00515652,9.645210266
1978,-1.83788228,-1.446946025,-9.208579063,-37.20117569,3.216656685,2.36878252
1979,-1.526048064,-2.164968491,-8.895851135,-34.36270142,4.022779465,0.920966089
1980,-0.330481946,-2.545501947,-8.364539146,-31.06621361,7.85473299,-3.887675762
1981,0.151461944,-1.363064766,-8.531816483,-14.56370831,7.728252411,-12.81059265
