PacketCounter,Acc_X,Acc_Y,Acc_Z,Gyr_X,Gyr_Y,Gyr_Z
326,10.10824013,8.032833099,-2.794416904,45.95365524,16.92692375,-46.03701782
327,9.64315033,8.360765457,-2.548261166,59.44043732,9.66946125,-41.07853317
328,8.640590668,9.166027069,-2.91716218,56.05144882,7.129031181,-40.09546661
329,8.958141327,9.515182495,-3.26596427,47.0692215,4.822002411,-40.70660782
330,9.265731812,9.78166008,-3.845275879,42.29262543,3.211148262,-47.53225708
331,9.549911499,9.821575165,-4.250667095,59.59858704,2.433337212,-52.01474762
332,10.11906433,10.26471329,-4.187167645,84.37332153,-4.059714794,-56.13360977
333,11.00953579,10.91304874,-4.767590046,98.34560394,-14.94680214,-59.89302063
334,11.28809547,11.95140076,-5.400111198,122.1123505,-27.66984558,-63.92731857
335,11.79991531,12.05871773,-6.0321064,151.7817535,-36.01462936,-63.5012207
336,12.04907608,10.93691063,-6.563447952,183.8318176,-36.53567886,-59.88277054
337,12.79139996,7.308250427,-7.195810795,221.6586761,-39.49518585,-35.86936569
338,11.69658661,5.079384804,-6.344502449,229.2807312,-36.38309097,-6.735019207
339,8.834094048,3.169089317,-6.54115963,186.8255615,-9.083658218,0.589126289
340,7.699706078,3.961740017,-6.163674831,180.2108765,13.53799534,-14.90655708
341,5.343410492,6.794689655,-3.649441004,208.6699066,-7.983880043,-30.84897232
342,4.370337486,8.459583282,-2.651025534,215.4650879,-61.61930466,-31.75226212
343,5.68553257,9.443898201,-6.009450912,202.3817749,-77.73493195,-15.80298328
344,6.690336704,7.916997433,-6.558494091,176.2558136,-94.31614685,-14.51068115
345,5.58912468,5.977947235,-4.965537548,143.8836517,-119.839386,-21.85513687
346,3.91752696,5.270308018,-5.147502899,135.9056091,-157.8265076,-26.75256729
347,2.937988997,4.397553444,-6.116696358,126.0264206,-174.6056366,-40.79896927
348,1.715124607,2.161679745,-6.207259178,126.8599167,-139.059433,-62.61418915
349,1.19643569,2.450456142,-4.972976685,142.8171997,-86.21699524,-72.87669373
350,2.737120152,4.967168808,-5.394853115,133.1335907,-78.2401123,-65.85721588
351,3.159853697,6.06773138,-6.402663708,108.6610794,-86.56905365,-51.24958801
352,3.06474328,6.419389725,-6.034434319,72.09619904,-78.29619598,-39.71989822
353,3.477820635,3.9701581,-5.728821754,45.49676895,-61.80425262,-44.13203812
354,3.365282536,2.071566105,-6.114860535,38.94538879,-55.29234314,-52.35415649
355,2.577759027,2.630625963,-6.913235188,36.42763519,-45.9106102,-52.48083115
356,2.015287399,3.15175271,-6.276725292,43.61837006,-35.57328415,-43.0064888
357,1.689591885,3.052412987,-5.641870022,34.27730942,-32.88967896,-31.91280937
358,1.192944765,1.68810606,-5.768852711,22.78738976,-39.47595215,-22.37839508
359,0.80697459,0.608295858,-6.554825783,16.10878563,-47.341362,-13.52303696
360,1.205087066,0.836820662,-7.295435905,10.7212553,-55.82745361,-7.564754963
361,0.92391932,0.923999071,-7.8482337,2.950403452,-61.05830765,0.103579104
362,-0.013493806,1.287999988,-7.711841583,-1.124813914,-57.01165771,4.901277065
363,0.086479381,1.532919168,-7.313340664,-6.743843079,-44.74133682,10.28480625
364,-0.512910485,1.656392574,-7.010782242,-8.578309059,-34.84651566,15.38271141
365,-0.49076125,1.668466806,-6.985652924,-12.20731258,-30.5424881,19.39348602
366,-0.723000884,1.000793695,-7.417734146,-14.22026062,-35.93761826,21.3968792
367,-1.119390965,0.153440669,-8.52898407,-7.648150444,-41.48188019,24.69634438
368,-1.080453277,0.147751316,-9.816217422,9.420988083,-40.04513168,23.39595032
369,-0.862844765,0.700231969,-9.96186161,30.91952896,-25.76116371,23.77131462
370,-0.651094258,1.317914367,-9.036553383,46.11083221,-9.349248886,26.28787613
371,-0.602598965,1.577350855,-8.75660038,54.64635849,5.549575329,25.5980854
372,-1.482782841,1.420634747,-9.167906761,55.84705734,12.16485214,24.19759178
373,-1.815039277,0.613323748,-9.605065346,50.92772293,15.880023,22.97372055
374,-1.416159391,0.072834507,-10.08033276,53.18448257,23.39950752,19.42244339
375,-0.919763446,-0.968427777,-10.4883976,71.67737579,43.08278656,11.65524864
376,-0.843405187,-1.341397285,-9.846421242,88.63647461,60.54962158,6.52323103
377,-1.19465816,-2.008673429,-10.30273056,93.15589905,78.98549652,-4.338398457
378,-0.783377767,-2.394665241,-10.64605045,111.4380035,86.11452484,-23.05585861
379,-0.126897275,-2.691043139,-11.62050629,113.4976807,71.53829193,-40.24759293
380,-0.355706692,-1.82790935,-13.20473766,105.5972443,43.81399536,-44.01846695
381,0.977288961,-1.460035205,-13.43050575,104.4948807,21.4968071,-37.5439949
382,2.281416893,-2.128118038,-12.30088902,97.0324707,6.375570774,-32.81173325
383,2.67542696,-2.282279491,-11.98046303,103.4203415,-4.942753315,-39.09006119
384,2.457477331,-1.608934164,-12.61597919,116.1832657,-16.34574509,-44.24148941
385,1.242507219,-0.789152026,-12.54375172,139.8473053,-20.24228287,-41.97793961
386,0.940906107,-0.888695598,-11.57591248,143.4093781,-24.53626442,-33.52719116
387,0.076102011,-2.15628624,-10.468503,132.9074249,-43.39183044,-21.51457787
388,-0.96867615,-1.690765023,-10.08473301,116.8294067,-62.41706848,-14.58229351
389,-1.834902883,-1.134801149,-10.78775406,81.45832062,-69.73670197,-11.97791767
390,-0.889644325,-1.902079105,-10.87010479,57.47839355,-66.09461212,-14.40211964
391,0.361994833,-3.264382601,-8.874347687,40.548172,-55.11758423,-16.57793808
392,0.688300848,-3.354820967,-5.946361065,49.08504105,-49.41928482,-13.69290066
393,0.225060582,-3.309344053,-5.020219326,33.48010254,-53.96404266,-4.353113651
394,-0.748605251,-3.254488468,-6.880090714,6.392249107,-81.78739166,-0.548899651
395,-1.389549971,-3.088728905,-9.700778008,-24.52835274,-80.24515533,-6.284853935
396,-0.605938911,-2.667128801,-10.1894083,-29.48890495,-57.95404816,-17.25152397
397,1.287726283,-2.377330303,-10.10280323,-36.7915535,-38.35392761,-15.56502438
398,0.913175285,-2.349928856,-8.704854965,-44.77912521,-29.90607262,1.405152559
399,-0.298060477,-2.29305625,-8.944867134,-63.8609581,-20.81867027,16.51049423
400,-1.012068033,-1.743310452,-9.912244797,-74.1350174,-3.314677715,17.26785851
401,-0.574070692,-1.150579453,-10.59252071,-83.99569702,17.33426476,12.05460358
402,-0.747903824,-0.899705768,-11.59213161,-89.73975372,35.71807861,12.38433075
403,-0.45457074,-1.401090026,-11.94513798,-92.3864975,49.59912109,9.951000214
404,0.671448171,-3.042745113,-11.93107033,-91.57318115,55.54465866,11.76072979
405,0.96843791,-4.301228523,-11.70049572,-86.64507294,47.00416565,11.34626961
406,0.630017519,-3.252132654,-10.95282173,-73.28000641,32.73814392,2.414845467
407,-0.470448107,-2.044944286,-10.73069763,-61.37582016,25.40790367,-6.239357948
408,-0.719168484,-1.065865159,-10.39536095,-55.40541458,30.22480583,-15.87248421
409,-1.146157146,-0.787767828,-10.50283813,-52.15791702,34.57097244,-18.43414879
410,-1.364136219,-0.419517308,-11.28466034,-48.22161102,30.18733025,-19.75356865
411,-1.387276411,-0.179242641,-11.3253212,-52.40538025,22.54453659,-19.63803864
412,-1.487416863,-0.112598598,-10.39058018,-63.83234787,25.83337402,-23.89825439
413,-1.330019355,-0.088110544,-9.739637375,-66.74116516,25.84644318,-31.01331711
414,-0.264835894,0.020103954,-10.46902084,-58.9987793,12.05851173,-31.164114
415,0.510801911,-0.325337857,-10.27632523,-41.51699448,5.627672672,-28.28525162
416,0.926794529,-0.684071779,-10.32841492,-24.94101715,-0.186403722,-27.02032852
417,0.20337145,-1.384526491,-9.121809006,-16.4694519,22.26143074,-26.39218521
418,-0.327367842,-0.904276073,-9.195110321,-1.032222152,42.76626205,-35.75000763
419,0.811705172,-0.448064834,-10.0209446,29.07997894,25.89715004,-33.2156105
420,0.861868024,-0.88724184,-11.39907265,63.77157211,-4.314388752,-31.82736397
421,0.231100619,-0.776924253,-11.74449253,79.14430237,-31.80171967,-28.47364998
422,-0.375824541,0.219122201,-11.42359924,76.16133881,-38.94583893,-28.65416336
423,0.563848615,1.091819048,-11.07036304,63.35569382,-39.87225723,-26.6899147
424,1.510158181,0.802738786,-10.73812962,51.25118256,-39.78575134,-19.02420998
425,0.825600684,-1.062297225,-9.723173141,48.15130997,-42.79710388,-18.02918434
426,0.528304398,-1.763418317,-8.296247482,55.27501297,-51.09942245,-19.43780899
427,0.254917979,-0.320236921,-7.698788643,56.84887695,-62.40581512,-19.41884995
428,-0.3225528,1.12298882,-7.685193062,43.63624191,-55.08571625,-15.82781792
429,-1.108675838,0.961124122,-7.228786945,33.96159363,-50.69715118,-3.124092817
430,-1.526948094,-1.231295824,-8.217217445,24.33198738,-54.66271973,13.8879385
431,-1.214883447,-1.91745162,-9.684539795,12.11848259,-50.06601715,18.92907143
432,-0.316154838,-1.143723965,-10.59448814,1.016037583,-40.69723511,21.44191742
433,-0.364429653,-0.334612966,-9.502814293,-26.72351646,-20.03051949,26.05319595
434,-1.600310802,0.612459719,-10.34641266,-36.96727753,-8.41337204,28.11023903
435,-1.694837809,2.203732252,-11.2185564,-44.28804398,-11.18886375,29.17829895
436,-1.478403807,2.809216976,-10.39897251,-66.43789673,-8.020386696,34.21072769
437,-1.333849072,1.85519731,-9.77866745,-82.26717377,-4.06024313,43.60505295
438,-1.118263721,0.328270435,-9.356718063,-106.1978989,8.133879662,51.34210205
439,-1.199262977,0.308471799,-10.40392399,-115.3632507,19.52126503,55.1939888
440,-1.839639425,0.506135345,-10.51866055,-111.6424484,27.76760674,48.39558029
441,-1.344770789,1.133038282,-10.05246639,-104.7736816,30.27423668,37.65816116
442,-0.688281357,1.415683985,-11.18839073,-99.53979492,35.01313019,33.9769516
443,0.265660077,1.217500091,-12.04066181,-97.98287964,38.804245,40.74766159
444,0.341222852,1.377466202,-12.48225021,-101.1219025,38.19284439,44.79115677
445,-0.682472348,1.50675416,-11.47159004,-122.1676331,40.80243301,43.76372147
446,-1.321091533,2.39408493,-10.45725536,-146.0196533,43.93001556,36.26312256
447,-0.762614906,3.198372841,-10.00824356,-149.8947601,40.34225082,25.87408066
448,-0.448825419,3.65775466,-9.015882492,-148.6543732,31.42088127,16.94721985
449,-1.100335002,3.27542305,-9.022657394,-136.6120911,15.63015747,6.760296345
450,-1.207809091,3.748739719,-9.199095726,-115.3650513,5.765471935,-3.419475317
451,-1.129866362,4.376614094,-8.839680672,-99.84597778,2.101416826,-7.819468975
452,-1.085019588,5.045119762,-8.386714935,-92.2820282,1.51369226,-5.593271732
453,-0.591785014,5.508106232,-8.378047943,-88.93128204,0.651131511,-3.11420083
454,0.29954055,5.600875854,-9.319422722,-75.13156128,-0.92145443,-5.48777771
455,0.909132719,4.776529312,-8.280860901,-54.29187012,-5.059043884,-11.24745941
456,2.270613909,2.86727047,-7.180346489,-34.62571716,-0.915229261,-9.793784142
457,2.472027302,-0.933894515,-6.921164036,2.370931864,16.03370857,-6.782615662
458,0.644124746,-2.060566425,-6.253359795,63.67467117,27.89986229,-15.54563046
459,-0.947167695,0.233437344,-6.286390781,137.3660736,28.53093529,-33.0601387
460,-1.38053596,2.911703348,-8.077069283,185.2508698,22.79525375,-44.32272339
461,-0.89309293,5.069264889,-8.819077492,196.3539581,19.45843697,-45.82572937
462,-0.773286462,5.088110924,-9.308842659,172.3103333,13.8648901,-40.99254227
463,0.414904594,4.350860119,-10.74311447,152.8303833,18.99539375,-32.25535202
464,1.765496016,4.008963108,-10.73786259,139.5601807,26.57585144,-26.47862244
465,2.458449125,3.645355463,-10.69609165,116.8533401,25.72484016,-24.53009415
466,2.925562382,2.944850683,-11.12513542,88.83346558,26.05569077,-20.25082779
467,2.569443464,1.535759211,-10.89513111,78.27689362,27.02479935,-18.93867111
468,1.8820889,1.037304521,-11.23207951,87.39611053,24.04611969,-18.30449295
469,1.015105009,1.2313447,-11.57485294,90.97129059,12.53251648,-10.10964108
470,0.016182285,0.873055875,-12.1761179,79.54733276,3.168963671,0.676356852
471,-0.51199466,0.179837838,-12.55696678,65.77156067,-5.452189922,8.255934715
472,-0.61857909,-0.643404961,-11.70846939,48.8058548,-6.291797638,11.93063259
473,-0.410620749,-0.580660462,-10.85786247,34.37477875,-0.035262451,10.7261219
474,0.62518245,-1.053219795,-10.71363831,35.83402252,8.646875381,3.293334723
475,0.989896834,0.501461089,-10.77885246,53.21000671,17.09603882,-1.926743031
476,1.579690814,0.671178818,-10.31980991,48.20203018,25.08924103,0.86904788
477,1.965380311,0.064742275,-9.778436661,40.40751648,38.03014374,9.910855293
478,1.500508428,-0.234652966,-9.16665554,36.71528244,44.0695343,20.91879082
479,1.073633432,0.175679266,-9.252426147,1.354969978,23.00809669,30.79829025
480,0.597280562,1.050153494,-9.852069855,-38.96001816,5.179210186,36.9542923
481,0.623503268,0.767369747,-10.34861469,-61.52058792,-7.369167805,35.10413742
482,0.739098608,-0.332526267,-10.64352989,-75.36043549,-13.0028019,32.53636169
483,-0.123239383,-0.734296739,-9.827939987,-77.49081421,-13.20688725,34.84074783
484,-0.39175263,-0.240041941,-9.083935738,-82.34470367,-21.34836769,30.27172661
485,-1.229905248,0.099518888,-8.942487717,-86.67115021,-27.78924942,24.84076881
486,-1.271563292,0.051290847,-8.646277428,-91.30171204,-31.60323715,19.62908173
487,-0.274410784,0.190154225,-8.653326035,-90.40091705,-34.10195541,13.04332066
488,0.042581603,0.706422269,-8.416246414,-91.12129211,-37.57146072,9.49646759
489,0.646577656,1.224632263,-8.081004143,-84.50799561,-42.6014595,7.548455238
490,1.095867515,0.645192623,-8.321194649,-74.85848999,-45.70789337,7.744095802
491,0.305592686,-0.084669687,-8.972744942,-51.26782227,-46.88822937,9.721814156
492,-0.529105783,-0.160632014,-9.808797836,-15.91500664,-43.49772263,10.49751282
493,-0.532803893,-0.308681428,-9.730689049,18.39910889,-27.0083313,7.147918224
494,-0.441057831,-0.221195936,-9.670063019,51.52511215,-3.657854557,-3.932770967
495,-0.864567578,-0.335560381,-9.841766357,78.06448364,17.9257412,-17.33968925
496,-1.212449193,-0.563460529,-10.83631897,92.50523376,37.97676468,-23.99250984
497,-1.091925383,-0.963410795,-11.68152046,101.0175858,50.67830276,-30.05049324
498,-0.742842376,-1.074060917,-11.04505825,113.5179901,41.96280289,-36.07486725
499,-0.066925034,-1.303307891,-10.28857899,112.4179459,34.45243454,-44.46416855
500,0.33985728,-1.732283115,-9.925742149,137.2383423,25.64311981,-57.72242737
501,-0.035782423,-1.640963674,-8.352471352,182.0989838,41.61285782,-56.13592148
502,0.122818016,0.43631956,-8.873504639,184.545929,30.9890976,-40.46121597
503,-0.436053902,2.410150766,-11.31937122,169.0542603,2.365209818,-34.54100037
504,0.032075219,0.044257969,-13.0704689,167.6747589,-8.050858498,-33.84584427
505,1.548981547,-2.169579744,-13.17271042,168.9519348,-15.62425041,-26.61961746
506,1.540920734,-2.238598585,-13.40553188,167.0119781,-28.94632912,-17.02977371
507,1.438649535,-1.840747833,-12.39296246,169.0123901,-39.23045731,-15.94423866
508,1.576387763,-2.222175837,-11.60905457,173.9025116,-50.7951088,-20.25255966
509,1.02218461,-2.466018438,-11.11806393,179.874176,-52.7614975,-17.91070747
510,-0.621497512,-2.610820055,-9.561746597,179.3128815,-50.25696182,-13.35950375
511,-1.631736875,-2.852645636,-7.944041729,153.2057495,-41.4929657,-10.76220512
512,-1.354661107,-3.97943759,-7.25999403,109.7583694,-36.57914734,-12.2768364
513,-0.718623459,-4.893498421,-7.306947231,76.07553864,-33.35726547,-13.06559944
514,-0.41361919,-5.641918659,-5.790121555,56.65323257,-25.79157066,-7.000258446
515,-0.492997646,-6.47830677,-5.451407433,33.46606064,-30.01301193,1.168357253
516,-0.411382645,-6.017711639,-7.512331009,8.167088509,-48.03138351,4.987013817
517,-0.52862066,-4.701523781,-8.699717522,-6.467655659,-55.69790649,-1.36366713
518,0.103647739,-3.168343067,-8.509394646,-25.96797371,-43.75349045,-5.149102688
519,0.686758101,-1.651750207,-8.023251534,-47.54014587,-25.88513374,3.176980972
520,-0.34060207,-1.801141143,-7.235395432,-72.92504883,-13.29281712,14.75861645
521,-0.518142283,-2.999375343,-8.629852295,-93.58830261,0.709252417,28.71663284
522,-0.406171948,-4.008470535,-9.270812988,-103.6568527,18.67781067,38.89838028
523,-0.889221072,-4.226862431,-9.652647018,-105.5419006,23.54431915,40.25020981
524,-1.111401081,-3.041095257,-10.52096367,-110.1908646,25.72002411,33.9747467
525,-1.087276459,-1.809071422,-11.28024101,-116.7514267,35.0623703,28.52718353
526,-0.518076658,-2.602350235,-11.8896122,-115.7728043,40.87691116,33.311203
527,-0.465945691,-3.51966095,-11.81666279,-109.1432495,30.77540779,35.53686905
528,-0.15755932,-3.939391851,-11.15666389,-94.10861969,22.15822601,34.21972275
529,-0.758698761,-3.851859331,-10.51206112,-79.95896912,20.31865501,29.71209908
530,-1.136024117,-3.902156591,-10.12132454,-67.5931778,23.70439148,24.39801216
531,-1.386864066,-3.211081505,-10.1918726,-56.86038971,27.23510551,15.18466473
532,-1.644654751,-2.242571354,-10.20334148,-51.97430801,27.15237999,6.354229927
533,-1.771765351,-1.103979111,-10.20188427,-57.8935585,24.22027016,2.296185017
534,-1.937213778,-0.164830595,-10.64484024,-70.04685211,22.64653969,-3.358599663
535,-1.393892646,-0.612941206,-10.22688293,-80.90132904,29.55381203,-8.241340637
536,-0.789432406,-1.523238778,-9.700325012,-91.66178894,35.01895905,-10.20277786
537,-0.896143258,-1.834187746,-10.02097702,-89.56733704,27.0925293,-11.90659618
538,-0.853614867,-1.69740963,-10.89221096,-75.20922852,13.05754185,-14.27033615
539,-0.604141772,-1.03193295,-10.40249634,-58.8972702,12.60343647,-22.49983597
540,0.024588417,-0.597831428,-10.05871391,-42.81327057,17.31975555,-27.66995811
541,0.650904953,-0.165864065,-8.796644211,-37.19277573,24.98168945,-24.58540154
542,-0.022694115,-0.396349162,-8.392680168,-34.95040131,25.52928352,-20.78089905
543,-0.311408013,-0.778876424,-8.863111496,-17.18467903,15.37741089,-17.54434776
544,-0.14875479,-0.715858757,-9.547585487,9.117903709,1.729615331,-17.5637989
545,-0.204277545,-0.175934166,-10.57913589,29.96456909,2.077430248,-21.47037315
546,0.112468779,0.214555368,-10.48182964,40.05033875,6.457511425,-24.1076355
547,0.447634518,0.039461523,-10.8211174,48.8408432,15.09182072,-21.39784241
548,0.537652969,-0.182782635,-11.36737442,54.13044357,24.70128441,-16.82985115
549,1.224648714,-0.90781343,-12.07544422,55.87709808,28.15340233,-13.52566719
550,1.012936831,-2.165598869,-11.6089201,66.1019516,18.76788712,-12.28642368
551,0.903874397,-2.354358196,-10.35851669,75.80162811,10.59259319,-17.90349197
552,1.490990639,-1.393952608,-9.500392914,81.30401611,0.408532441,-15.26670933
553,1.318226457,-0.221178651,-8.997132301,76.52075958,-9.002779007,-7.818282127
554,-0.361345649,0.60601306,-8.904096603,71.37659454,-16.90239143,-6.48237133
555,-0.17423819,0.79450506,-10.28364468,74.03234863,-40.38860703,2.643476009
556,-1.107587814,1.12599349,-11.27343178,56.38783264,-64.38886261,10.46739197
557,-1.514737129,0.569109797,-10.98795223,22.90744019,-67.4571228,19.21835709
558,-0.749580443,-0.334495604,-9.543420792,-3.062535524,-49.60965729,19.8443985
559,-0.714660645,-0.604264379,-8.146085739,-9.334321022,-35.6160202,11.47990131
560,-0.443998903,-0.172857761,-7.596183777,-28.62494469,-37.11288452,16.22460747
561,-0.303821981,0.111285612,-7.823050499,-61.3292923,-35.47112274,30.13382912
562,-0.327926993,-0.58848089,-8.918028831,-115.461853,-8.457566261,51.56217957
563,-0.489330173,0.499991119,-9.472063065,-124.6056595,20.00099182,55.38588333
564,-1.080333471,1.934168935,-10.3707571,-128.2956238,36.44610596,53.21678925
565,-1.062564611,2.896339655,-11.28287697,-124.0615768,28.86477852,58.00512314
566,-0.91574347,2.600255013,-11.21509933,-148.6577301,24.33749199,65.54902649
567,-1.233084321,2.135616064,-11.58608723,-170.2377167,16.62174034,65.51544189
568,-0.583596349,1.805975437,-12.0005331,-171.5355377,11.27791405,55.08218384
569,0.590834498,1.550068498,-12.0023365,-163.0254364,9.844410896,43.02216339
570,1.151428938,1.111560345,-11.741292,-157.1682129,10.84689808,39.2027359
571,0.764207602,0.754509091,-11.38432121,-156.2972565,12.42687988,39.65751648
572,0.513424098,0.984082997,-10.80016136,-161.7276764,12.29946041,37.80022812
573,0.496443719,0.984536052,-9.809997559,-157.7458954,9.328444481,30.4324913
574,0.746928155,1.450145364,-9.057699203,-140.0204773,-0.190001979,18.92738914
575,0.640587568,2.491225004,-8.640089035,-112.4432373,-12.25865746,3.868896246
576,0.017702408,4.14537096,-8.738307953,-88.9307251,-23.19365311,-6.628873348
577,-0.508571625,5.79656744,-8.738560677,-67.96285248,-20.67225838,-6.150109768
578,-0.515990436,7.135193348,-8.101790428,-62.34310532,-12.34482384,-2.266327143
579,-0.206499279,7.007415295,-7.967819691,-74.51209259,-2.06439209,-3.829794645
580,0.123405784,5.159045696,-8.641476631,-81.37833405,2.85987854,-6.754067421
581,0.54456985,4.047597408,-9.54139328,-62.84518051,0.044592332,-5.545258522
582,1.414994478,3.891242504,-8.375607491,-17.97039986,-5.661522388,-6.209174156
583,1.886659145,2.826377392,-7.837386131,22.72445107,-2.583296776,-13.99606228
584,0.686815739,2.420931339,-6.685498714,51.62402344,8.04895401,-19.37783623
585,-0.929707468,3.221493959,-6.219556808,61.4134903,22.47159004,-21.63630104
586,-1.059102178,4.236391544,-7.226578236,69.17738342,19.84230232,-26.82902145
587,-0.141869351,4.032926559,-8.214321136,66.52955627,8.216538429,-27.09195328
588,0.417141408,4.037374496,-10.35339451,66.67321014,7.859584808,-20.07717514
589,0.672327399,3.460728884,-11.49116421,77.71987915,5.918212414,-12.03884029
590,1.009923458,3.16196847,-11.40071487,89.72579956,-1.516245365,-12.58242989
591,0.928994954,2.758001804,-11.09192848,95.01243591,-12.35119438,-15.9812994
592,-0.010656606,2.197290897,-11.09569454,94.60980225,-16.9675312,-18.18918419
593,-0.330682009,2.502205849,-11.08363056,91.0116806,-16.84081459,-20.72127533
594,-0.106881537,3.487863541,-10.88177586,77.44313049,-13.64735126,-17.39763451
595,-0.585570991,3.904271603,-10.55240536,63.653759,-10.12277031,-10.67439842
596,-1.121299744,2.669664383,-10.2364893,61.91894531,-1.291877151,-1.561633825
597,-1.094517589,1.527528286,-10.30304909,78.60378265,1.46410501,5.403962135
598,-0.891594827,0.652966738,-10.77045441,88.14736176,-3.742228746,10.95002747
599,-1.054368258,0.931430101,-11.03720379,87.7384491,5.356278896,16.88467598
600,-0.609963059,0.869569302,-9.956238747,81.06008148,17.74124908,20.9590416
601,0.219634861,0.947929621,-8.66927433,77.06884766,34.38777924,20.25270271
602,0.011345014,0.615442812,-8.999372482,81.33441162,38.63124466,20.12288857
603,-1.074905396,0.330683947,-10.57858276,76.80567932,36.26425934,18.91855621
604,-1.302703261,0.427828729,-10.78036118,70.42211914,36.62986755,18.58568954
605,-0.850499868,-0.186849594,-10.03703213,74.56645966,35.85935593,15.40728092
606,-0.741190791,-0.412283897,-9.517717361,76.97659302,29.29615784,9.904159546
607,-0.144316703,0.844890952,-9.275202751,68.58351898,19.88667297,7.818789959
608,0.185398474,1.51511085,-9.23820591,44.99333572,7.761720181,11.72505951
609,-0.053615149,0.488553673,-9.000513077,21.15047836,0.475833833,15.15850067
610,0.176952586,-0.77681917,-8.593351364,11.35682678,-1.036989212,17.11865616
611,0.825318635,-0.761650443,-8.68399334,6.931456566,-0.145499498,14.78014183
612,0.56904906,-0.222636193,-9.156230927,0.05752616,-5.516537189,12.99520016
613,-0.052589133,0.386437863,-9.567294121,-5.880672455,-6.722652912,9.031170845
614,-0.320128351,1.131396651,-9.497330666,-14.82105446,-9.42738533,4.868775368
615,0.427930206,0.929211736,-9.210124016,-21.19517708,-11.48529148,4.234031677
616,0.711022377,0.188327223,-8.920305252,-19.93540382,-13.41783905,9.62505722
617,0.508477747,-0.678605199,-8.791129112,-9.319921494,-22.94903374,16.49559402
618,-0.364053428,-2.438938379,-8.905011177,3.368726969,-32.44384766,20.03679848
619,-0.499604166,-3.268981218,-9.279765129,37.21511078,-27.0725956,15.08921814
620,-0.145396277,-2.835491419,-9.039132118,79.35939026,-6.409869671,5.535106182
621,-0.148920059,-0.709602475,-9.323534012,90.72829437,7.193984985,-4.283945084
622,-0.229964942,0.589386642,-10.18210697,95.6306839,10.64595413,-15.05087852
623,-0.659383774,-0.14606978,-10.93118095,81.15364838,23.67478752,-22.09101677
624,-1.25004673,-1.035913229,-12.18617916,65.69213867,28.15732956,-22.36607361
625,-0.482197374,-1.785958648,-11.63447952,71.7260437,34.23001099,-23.48860931
626,0.633610725,-2.309782982,-10.90251446,98.28466797,39.57661819,-29.38266754
627,1.169926524,-3.136253834,-10.99304676,130.3061676,32.84487152,-35.02466202
628,0.562009335,-3.347672224,-10.65933704,163.1615753,27.22696114,-39.09391403
629,-0.051266961,-3.169888735,-9.818874359,173.8216095,27.03040504,-39.31346512
630,-0.242451862,-2.579708099,-9.231842995,170.9450226,27.11175919,-37.73754883
631,0.146387503,-2.604628325,-9.316949844,153.1366272,8.477793694,-38.14713669
632,1.220467448,-4.623689175,-10.11168861,135.2220306,-8.641014099,-37.47751999
633,2.741549969,-6.376711369,-9.9145298,132.6847382,-20.85417366,-31.62306595
634,2.493966103,-6.524435997,-10.31225204,133.8790131,-34.78585052,-22.36394882
635,2.501689196,-5.687963009,-10.08324146,150.2692413,-52.6791153,-25.11650658
636,1.574701428,-4.314883709,-9.04531002,156.9665833,-60.37713242,-28.64979172
637,0.519960999,-2.787222624,-8.775560379,130.8194885,-55.14716721,-26.58271599
638,-0.093008101,-3.001197815,-8.873755455,83.61598206,-51.53592682,-16.42263603
639,-0.200204745,-4.214761734,-9.578484535,40.35668182,-43.43848801,-8.428163528
640,0.302992165,-5.776401043,-8.812117577,19.95644188,-28.63204765,-7.269588947
641,0.979599118,-5.90241909,-6.448901653,15.3412714,-10.39072037,-4.216400146
642,0.214331388,-6.13715744,-5.639789581,-1.244066477,-2.835729361,6.668829918
643,-0.324503005,-5.397069931,-6.918162823,-20.38471222,-27.27989006,13.40756798
644,-0.28848657,-4.664017677,-7.433828831,-30.79709816,-44.12901306,12.52991772
645,-0.085082047,-4.665454388,-7.101004124,-48.18113327,-41.28998184,10.08669758
646,0.738373339,-3.658283234,-6.86815691,-72.69067383,-36.98920822,10.18956375
647,0.15513809,-3.580817699,-7.128313541,-100.0878677,-26.71147346,16.5803833
648,0.120160259,-4.001389027,-7.292636395,-114.8042679,-15.31888294,23.59593773
649,0.728091478,-4.150421143,-8.291257858,-123.3466034,-9.866749763,30.67610741
650,0.172960609,-3.761973619,-9.642491341,-128.8009796,-7.048524857,33.76733398
651,-0.13963227,-3.438378572,-10.35667419,-125.5555878,-5.779327393,30.49886131
652,0.01306349,-3.475380659,-10.76503754,-121.6885757,-9.48938179,26.85168266
653,0.072074622,-3.824524164,-11.16273975,-114.672554,-12.60562706,21.61171341
654,-0.39016372,-3.634307861,-11.2816906,-102.3896561,-8.759885788,19.77700615
655,-0.543648839,-3.795777559,-10.69886494,-86.25106049,-6.671197891,20.61127853
656,-0.814775169,-4.310416698,-10.55142689,-69.39089966,-4.661935806,18.80114174
657,-1.052178264,-4.267459393,-10.77293587,-58.65742111,2.706438541,13.25611019
658,-0.929960847,-3.391653776,-11.00923252,-49.87253189,8.231408119,6.481813908
659,-0.989378929,-2.317816973,-10.64855862,-46.96158218,12.53607273,-0.472756684
660,-1.582236767,-1.794878244,-10.62759781,-51.90312576,29.28782845,-6.568594933
661,-1.640897155,-1.595658302,-10.47305298,-57.79172516,35.75858307,-13.40867424
662,-1.103831053,-1.766572237,-10.51725769,-55.09337616,35.558918,-17.38371849
663,-1.169405222,-1.799151421,-10.44147778,-45.36597061,24.23463249,-21.87228775
664,-0.715911627,-2.299975872,-10.69237709,-26.81834984,7.981122971,-25.62425423
665,-0.23243475,-1.977743864,-9.807352066,-10.3825655,6.7508564,-31.64489555
666,0.212752283,-0.962089896,-8.8852911,-13.27719879,22.87682724,-32.08073807
667,0.228779078,0.133201733,-9.746249199,-12.93564129,41.50716782,-27.90110207
668,0.502460301,-1.747321367,-9.64177227,4.662422657,45.54390717,-18.59589767
669,0.409075141,-3.991677284,-9.593956947,20.27819633,24.76980209,-17.8627224
670,0.709674299,-4.439301491,-10.53948021,28.24835587,5.830629826,-22.52126884
671,0.415524244,-3.676054955,-10.81343269,33.3392334,-7.110520363,-24.10008049
672,-0.052739859,-2.072019815,-10.56834888,33.0608902,-9.562417984,-26.42040062
673,0.563818216,-1.671649933,-10.02966213,22.79661751,-12.82990456,-20.71461105
674,0.324355304,-2.093187332,-9.480021477,12.10042381,-23.00510788,-14.28247261
675,-0.166103393,-2.203024626,-8.990030289,7.052017212,-34.92602158,-9.747197151
676,-0.393928677,-1.390032649,-8.410317421,3.745035887,-42.39908218,-4.653748512
677,-0.492467821,-0.009997763,-8.230926514,-3.761770725,-45.14169312,0.908168852
678,-1.025057077,0.598763704,-8.494100571,-20.64790916,-44.11603165,5.122493744
679,-1.184025168,0.488747478,-9.03018856,-32.31268692,-44.65304947,10.57433319
680,-1.01087451,0.122354358,-9.273076057,-30.2407074,-46.52000046,15.01172829
681,-0.973713577,0.012817038,-9.152626991,-19.7421093,-54.85017014,22.65063286
682,-0.868327498,-0.047480367,-8.884860992,-33.83629227,-52.69800186,32.24094772
683,-0.757919908,0.381708443,-8.151206017,-72.5688858,-18.56374359,38.04978561
684,-1.608926296,1.135842204,-8.470024109,-116.8540039,27.05535889,43.15375519
685,-1.481955647,1.889236569,-9.561383247,-164.1161499,45.75807571,47.98724365
686,-1.470245838,2.336525917,-10.73697948,-198.0004578,55.53633499,49.29939651
687,-1.138743997,1.245980978,-11.53408241,-176.4841156,36.40575409,44.60992813
688,-0.025865383,2.13845253,-9.860904694,-159.5744019,32.14408112,43.86923218
689,0.035597622,3.834817171,-9.548671722,-167.4233551,34.16138458,44.24990463
690,-0.571888328,4.384991646,-10.61595345,-178.0470123,27.75779343,43.33356857
691,-0.755090714,3.874408007,-12.10810089,-186.9903564,20.59337044,41.35064697
692,-0.287734568,3.318037987,-12.40863228,-191.1121674,10.8297863,38.17707443
693,0.273639411,3.336614609,-12.21897316,-188.517868,0.724357069,35.7596283
694,0.23187086,3.559892416,-11.23954582,-187.9505463,-6.982481956,35.86326599
695,-0.192517102,3.807693958,-10.64790344,-190.8503265,-13.60838032,32.14949799
696,-0.33710295,3.842441082,-10.78017044,-176.9783325,-14.15497494,26.79714203
697,-0.277905792,4.052237511,-9.654070854,-159.9446564,-11.35692883,20.28065681
698,-0.048666842,3.700015306,-9.14139843,-131.4291382,-11.70668411,13.74349976
699,0.024759192,3.837060928,-8.812345505,-99.45059967,-11.87135315,8.502861023
700,-0.14942497,5.067581177,-7.970756531,-74.60772705,-8.721356392,5.566224098
701,-0.499247462,6.480891228,-6.881212234,-64.11161041,-5.050251961,5.042215824
702,-0.521882415,6.466258049,-6.94178009,-52.45000458,-4.326468945,2.632473707
703,-0.492200553,5.281956196,-7.385887623,-36.33870316,-13.71173573,-1.579421878
704,-0.069885187,4.542438984,-7.474350452,-9.091973305,-14.03875065,-4.284887314
705,0.71783489,3.95559144,-6.428817749,31.62892342,-7.699930191,-6.487727642
706,1.535932779,3.505425692,-5.55192852,71.41815948,8.856677055,-8.03053093
707,0.884477675,2.988506794,-5.447988987,107.5398712,23.78863525,-14.61018848
708,-0.16072765,3.160592079,-6.238458157,140.3742523,22.79416084,-22.83440781
709,-0.415186346,4.436783791,-7.078265667,155.7218933,6.014420033,-29.12425232
710,-0.062868237,4.949800968,-8.683877945,135.6281433,-13.63905334,-30.15710258
711,0.51782012,5.293510914,-11.02168751,125.6030121,-9.431684494,-22.38349533
712,0.820310414,4.802135944,-10.66781998,119.0394363,-11.35957432,-12.4942112
713,-0.070542753,4.365547657,-9.938067436,116.3855667,-16.42003632,-9.589167595
714,-0.624097228,3.94534564,-9.039424896,109.4127045,-21.64665413,-12.03434563
715,-0.624425709,3.22554493,-9.160696983,97.09812164,-25.24263573,-15.95910454
716,-0.671546221,3.666307211,-9.235276222,87.20294189,-26.1588726,-14.56642151
717,-1.199142098,3.884712934,-9.157907486,75.56703186,-21.15207481,-7.374524593
718,-1.266446471,3.500431299,-9.601733208,70.41029358,-19.35232735,-2.951733589
719,-1.212271571,3.309322119,-10.0648365,72.81451416,-22.21785355,-2.259886742
720,-1.740950584,3.40250206,-9.972784042,83.95171356,-24.1493721,-1.176237226
721,-2.110364437,2.398515701,-10.06026745,97.32634735,-24.72346878,5.433646679
722,-1.221083403,0.940847874,-10.77144337,83.09349823,-28.40796661,16.67962456
723,-1.170500278,0.864853919,-11.23797417,78.83625031,-23.26354027,22.72089005
724,-1.497678757,2.328443766,-10.87881565,87.08330536,-26.90671539,25.85605621
725,-2.085111856,0.862557888,-10.92244053,84.69045258,-25.62383652,28.99790955
726,-1.62447834,-0.224155128,-10.8858757,86.86105347,-22.80736542,27.80996704
727,-1.135506988,0.330826044,-10.61977577,81.6190567,-19.76461601,20.75931931
728,-1.101373076,2.164413214,-10.33019638,61.01885986,-19.16704559,12.53090572
729,-1.283512115,2.538829327,-9.395422935,30.26948929,-16.33600616,13.52223873
730,-1.708678246,1.025341392,-9.126976967,-0.491489589,-10.94979286,22.19981766
731,-2.101406336,-0.060687885,-8.61776638,-21.25717926,-7.859937668,27.07103729
732,-1.608117461,-0.768730223,-9.072497368,-30.34418869,-8.392407417,19.50301361
733,-1.82362926,0.165664464,-9.62134552,-33.87539673,-8.920492172,11.76945114
734,-1.408603787,1.155963063,-10.29211235,-37.93354416,-5.028087616,6.384895325
735,-1.477520108,1.74685204,-11.03491116,-43.03862762,3.899200201,1.94719243
736,-1.077993393,1.026109695,-11.23522854,-41.54863739,6.205227852,-0.019036757
737,-1.618403554,1.627364039,-10.72990704,-33.97770691,7.339851379,5.209582329
738,-2.029437542,1.455744028,-9.930060387,-32.22740173,9.285886765,10.39736748
739,-0.800353527,0.172899812,-9.314125061,-27.56973648,6.755855083,5.614217281
740,0.04481528,-0.066941485,-9.01030159,-21.34142113,-9.901358604,-7.37522459
741,-1.105728388,1.428105474,-8.849099159,-10.16800213,-23.84658813,-17.23710632
742,-2.392963886,2.454102039,-8.98947525,-15.25962162,-22.61710739,-23.43330002
743,-2.743836164,1.482536316,-9.511487007,-28.70172882,-10.36300087,-24.9928894
744,-2.973370552,0.263986349,-9.951172829,-29.37981987,1.638440132,-24.94108009
745,-2.648130417,-0.051525716,-9.360447884,-8.870300293,1.905856967,-19.29172707
746,-2.163997412,0.233949736,-8.65024662,7.270801544,-6.773652077,-17.04826355
747,-2.226059914,0.39990738,-8.618721008,6.134046555,-3.623172045,-20.17786407
748,-2.540267229,0.337790579,-9.385245323,-2.123704433,4.522042274,-32.71446228
749,-3.027405977,0.863560259,-11.61318588,10.06680775,12.7680645,-49.39072418
750,-2.684456587,1.289543629,-11.61558533,40.98274231,21.21218872,-55.84843063
751,-1.759887695,1.760675669,-9.744297028,70.87467957,39.67495728,-55.44523621
752,-0.622457087,1.393511176,-9.499145508,87.88698578,53.09045792,-49.0512619
753,-0.435351878,-0.608098507,-8.556469917,86.98152161,59.20318604,-46.38646317
754,-0.88214463,-3.061616659,-8.447579384,105.8572083,52.73698044,-52.61826706
755,-0.896746814,-2.509921312,-10.4902668,136.1399994,35.31153107,-60.6651001
756,-1.23799634,0.087154761,-11.38043022,147.4580383,15.51601124,-56.37817001
757,-1.26212132,1.264835238,-11.189785,136.4589081,12.52649498,-52.09145737
758,-0.818439007,1.16098237,-11.50319958,112.8009109,12.80872059,-49.93619537
759,0.322354913,1.078834653,-12.00716019,91.17320251,7.189290047,-46.52050781
760,0.430659473,-0.60453403,-11.01396561,86.82435608,1.60845232,-39.79156876
761,-0.523281455,-2.153176069,-10.18703556,100.8577881,0.662013054,-38.86188889
762,-1.061823249,-2.264457703,-9.318332672,119.9777145,-6.595636845,-39.95350266
763,-0.787120223,-1.846371412,-9.320311546,126.7443542,-13.93912506,-33.37944412
764,-0.999415398,-3.407648325,-9.953185081,113.6957092,-13.11920452,-23.38666344
765,-1.258214951,-4.475018024,-9.851676941,112.1601715,-14.99071121,-19.44671059
766,-0.898039639,-4.788221359,-9.325305939,108.3707809,-13.68396473,-18.54518318
767,-0.697532237,-3.751298904,-8.505235672,97.69950867,-12.41541958,-17.61565971
768,-0.893794537,-2.937039852,-7.740125179,76.38170624,-7.815366268,-16.16481209
769,-0.734686613,-2.692902565,-7.532171249,53.43915939,-6.464438915,-11.72990131
770,-1.156511426,-3.189747334,-8.170736313,31.60787201,-2.736938,-5.442122459
771,-1.16040051,-4.409054279,-8.630105019,17.59018135,0.231513426,-3.796311855
772,-0.657564223,-3.891272545,-8.249641418,6.459152222,-0.710669219,1.60242033
773,0.432420105,-1.852214336,-8.336605072,-25.2982769,-4.291656494,10.38089371
774,0.089270525,-0.373608053,-7.970624924,-73.58876801,-6.112537384,18.44228745
775,-0.881278336,-1.396879554,-8.181440353,-114.5259476,1.586142898,24.50695229
776,-1.371098518,-3.010667324,-9.133793831,-129.6884613,7.330976963,27.84963799
777,-1.40558362,-3.68707943,-9.532644272,-129.9519348,10.86421967,29.24052429
778,-0.879227817,-3.645390272,-9.582650185,-119.6501999,6.467015743,29.25958443
779,-0.333275676,-3.285725117,-10.28997803,-109.124054,0.671339333,30.72859192
780,-0.421799123,-3.015560627,-10.63434219,-89.96936035,-1.974258542,32.60110474
781,-0.391967595,-2.390216112,-10.49717617,-69.97267151,-2.921041965,31.68240356
782,-0.78196156,-1.715817332,-10.60014343,-55.60881042,-1.519411683,31.16629791
783,-1.380240679,-1.331409454,-10.75511932,-46.83517456,0.305870175,30.13352203
784,-1.897878647,-1.115391731,-10.98255157,-44.68070221,-1.766403198,26.95020866
785,-2.012686968,-0.747847676,-11.23039722,-38.3375206,1.717726827,19.76184845
786,-1.650297761,0.076603904,-11.00298214,-34.12137222,7.137088776,11.83162403
787,-1.469705224,0.393779695,-10.95618534,-34.6105957,9.974042892,6.788498878
788,-2.037733078,0.128342003,-11.1507988,-43.19441223,17.81520462,-2.410615444
789,-1.913137674,-0.949216902,-11.12973404,-46.86135483,29.97626686,-13.04594517
790,-1.985054493,-1.573237062,-10.89779758,-40.24978638,42.50403214,-24.73227501
791,-1.787559748,-1.225648046,-10.52587032,-30.47702217,46.97079849,-29.07447624
792,-1.212409973,-0.582084537,-10.73661995,-17.60873604,40.70759964,-26.53222275
793,-0.675380647,0.263008356,-11.11745167,0.953195274,33.19059753,-25.83815384
794,-0.490967661,0.293497503,-11.39408875,19.61657715,34.19319916,-26.3474369
795,-0.145669445,-0.455539346,-10.26761723,27.55588341,38.14815521,-19.41071892
796,-0.555522382,-1.343795538,-9.667715073,29.256464,37.74145508,-20.60271454
797,-0.500730634,-2.126116753,-9.739286423,42.7772789,27.03904343,-23.59173584
798,-0.590680659,-1.591655254,-10.15531063,57.91379547,11.57631969,-27.8676033
799,0.043500062,-0.768833399,-10.7691803,67.17704773,-9.004768372,-27.43088913
800,-0.235993519,-0.060931593,-11.8644228,69.23805237,-25.59366226,-30.03638649
801,-0.126997605,-0.113063507,-11.66904068,62.87664032,-28.52559471,-26.05444527
802,0.684249699,-0.895211637,-11.07086468,52.94043732,-27.02414703,-17.66604233
803,0.627681196,-0.613081396,-10.13350105,47.7375145,-21.26683426,-14.49901772
804,0.167381451,-0.138836831,-9.349233627,41.93234634,-22.74567795,-6.511934757
805,-1.105069876,-0.344142258,-8.81401062,28.55021095,-19.2104187,-0.762269199
806,-1.107342243,-1.094678044,-8.782513618,17.53553391,-23.21766853,5.177623272
807,-0.507541716,-1.645730019,-8.763305664,17.25424385,-33.5167923,11.62664223
808,-0.985914528,-1.222533584,-9.214525223,30.43140221,-39.16502762,11.39103222
809,-2.36548543,-0.864869535,-10.24762917,39.54603195,-43.57847977,13.48548889
810,-2.884425163,0.220282659,-10.81447315,25.14470673,-44.1732254,21.42457581
811,-1.120485783,1.401572108,-9.407100677,-4.606699467,-20.77338409,26.08767319
812,-0.785176218,0.501891375,-8.330812454,-39.42625809,8.570623398,29.92443275
813,-1.72636652,-0.350319922,-8.100613594,-60.3021965,17.96626091,39.35978317
814,-1.423497915,0.270661622,-8.427247047,-88.43991089,13.34312344,50.26438904
815,-1.459965706,0.248950124,-9.338275909,-116.4805832,17.7971344,54.95675659
816,-0.810215056,0.054113135,-9.544774055,-126.9964981,24.04708481,55.5525856
817,-0.717149556,0.059561253,-9.603404045,-154.114212,36.13476563,54.35941696
818,-1.172613382,1.554313183,-10.13834667,-170.4133911,39.84786987,52.19442368
819,-0.905890644,2.542514086,-10.73747635,-184.428833,41.78868103,50.37701035
820,-0.81684339,2.293926239,-10.87032986,-196.5607147,38.3224678,48.05539703
821,-0.51365602,2.056491613,-11.20217228,-193.8168488,25.66714096,43.41457367
822,0.099696986,1.986355424,-11.60843945,-184.4155273,12.51973724,40.6733551
823,0.182805479,1.649867892,-11.83180332,-177.7125549,1.828882813,37.93114471
824,-0.668802857,1.845743895,-10.91220188,-176.288559,-0.14304398,34.19692993
825,-0.619946539,2.830651045,-9.965860367,-170.5641632,-2.367292166,28.81748962
826,-0.223229498,4.164831161,-9.124392509,-156.4911804,-0.928830266,21.98635101
827,-0.172898889,3.930749416,-8.52462101,-144.1765289,-5.407799721,16.90303802
828,-0.254963517,3.485181093,-8.33864212,-129.2736969,-5.631320953,15.24210644
829,-0.054733153,3.640007734,-7.563323498,-112.4845276,-7.445446491,17.13067245
830,0.094749033,4.329110146,-5.967784405,-92.00875854,1.036296487,18.89078712
831,-0.758331835,4.975270271,-5.992662907,-63.64954376,9.436104774,14.28919601
832,-0.900298774,4.301190853,-9.350453377,-40.0809288,-7.108392239,5.500104427
833,0.284306794,4.254500389,-11.04382133,-4.503378868,-20.04853249,2.457170963
834,0.326198161,5.46205616,-9.102900505,19.61023903,-14.42180443,5.530049324
835,0.710975289,3.919782162,-8.508733749,40.14746475,-8.425610542,5.427427292
836,1.162533641,2.406662703,-7.670242786,64.54823303,-1.926596403,-3.805520296
837,0.266923636,2.714297056,-7.532728672,86.2677536,-2.945085764,-17.29059982
838,-0.195769399,4.199952602,-7.877802372,108.1045685,-11.62897301,-23.64954948
839,0.322386205,4.884623051,-8.930711746,118.6338882,-27.01429749,-23.6584549
840,0.064538404,4.762002945,-9.574617386,118.2698212,-33.04818726,-20.6204567
841,-0.174307793,3.438679218,-9.943699837,109.8366013,-30.08506012,-18.33333397
842,-0.586734176,3.062341213,-9.730730057,104.9996109,-19.9787178,-20.00504875
843,-0.594698846,3.471997738,-9.412838936,101.2575989,-16.6301136,-24.41402817
844,-1.003021002,3.694087744,-9.326688766,93.37924194,-20.95750427,-25.52403259
845,-1.490672231,3.447577953,-9.547808647,80.24212646,-18.39855957,-19.67322159
846,-1.542383671,3.220304728,-9.557121277,68.97760773,-16.37166023,-11.17049694
847,-1.29015708,2.498724461,-9.469388962,67.37210083,-13.36022377,-3.950011969
848,-1.182367802,1.749651074,-9.372127533,66.64970398,-14.39027596,0.833297193
849,-1.512817621,2.159867764,-9.876696587,65.47444916,-9.732304573,2.136042356
850,-1.388864756,2.190951586,-10.29951,59.67110825,-10.03919792,1.404541492
851,-1.100249171,1.91040647,-10.84070778,56.19589615,-9.335107803,0.959795594
852,-1.448660493,1.392320037,-10.97565556,54.70195389,-9.697515488,1.504122138
853,-1.718918204,0.957164943,-11.17576599,52.40052032,-8.988219261,1.217601418
854,-1.195087194,0.937767744,-11.24623585,41.63243103,-2.506916046,1.422858119
855,-0.570578396,1.611247659,-10.69994545,32.04874039,20.78303719,5.050928593
856,-0.385328263,1.86426878,-9.279580116,19.73596382,40.55210114,10.93819141
857,-0.982982635,1.846921802,-9.611361504,16.88750458,40.97230911,16.28578377
858,-1.326429486,1.351426959,-10.08780575,5.793210506,30.84628868,19.46930504
859,-1.676041603,0.841838419,-10.16894627,-0.248437509,23.55608177,17.20571518
860,-1.156495929,0.966648638,-10.30180454,-1.584476829,27.14216614,13.01112461
861,-0.071854115,1.618652821,-9.949146271,-10.61031723,36.24333191,10.70811367
862,0.147590578,2.548915625,-8.971730232,-32.76197815,37.33778763,13.59881878
863,-0.599944353,2.448752165,-8.505775452,-53.95808029,30.13833046,15.07330036
864,-0.450924933,0.552630305,-9.086327553,-57.94270325,22.16871834,12.23599815
865,-0.168580607,-0.316313624,-9.774435043,-39.82569885,15.9246645,10.74598503
866,0.034362949,0.286355138,-10.15374851,-18.0055294,16.06583214,8.153820992
867,0.158081293,1.820463061,-9.963108063,-4.624510288,13.78592968,1.668604493
868,-0.03428496,1.477197051,-9.252378464,0.575888813,2.771678686,2.30811429
869,-0.348135293,1.193552375,-8.963459015,2.280094385,-8.862643242,4.522102833
870,-0.315833211,1.45115459,-8.830013275,0.743691087,-16.12712097,-0.135087892
871,-0.345640689,1.384191394,-9.049367905,-4.336808205,-22.65754318,-6.806044102
872,-0.777157962,0.659260631,-9.78306675,-2.681854486,-21.9502449,-14.01319408
873,-1.203400731,0.448084056,-10.00011635,1.0414536,-19.46202469,-21.36377335
874,-1.488186359,0.644685268,-9.922421455,9.930293083,-16.51594925,-23.86565208
875,-1.537535429,0.536036372,-9.715733528,23.43604088,-9.998153687,-20.93088531
876,-1.137301087,0.22778216,-9.817927361,35.65697479,-2.58508563,-19.23832893
877,-0.946326494,0.12241111,-9.381996155,74.37641907,16.76875305,-22.48984146
878,-1.130298018,-0.98632431,-8.912484169,122.0473785,44.37819672,-34.17604828
879,-1.791836619,-1.759525061,-10.46817493,144.8209839,53.38493347,-45.91411972
880,-1.313035846,-1.155971766,-11.40502071,158.6446075,54.25865936,-51.72958755
881,-0.824748695,-0.932624102,-10.7151289,157.0883331,48.66625595,-46.66643524
882,-0.672494829,-0.31321311,-10.01541042,159.1251526,51.75128174,-40.4209137
883,0.230675846,-1.57125783,-9.73532486,150.2875977,44.68577194,-38.64970398
884,0.39070791,-2.413302183,-10.62853718,168.0222473,32.264534,-45.07667923
885,0.198164403,-2.518204212,-12.1843729,179.0711365,17.17278481,-54.01827621
886,0.488192856,-1.255400538,-12.69295692,184.252243,11.19981861,-53.77968216
887,2.239985704,-0.965429068,-12.19253254,172.7282257,5.049986362,-46.73146057
888,2.614967823,-1.873282671,-11.81470299,162.4859467,-4.137439251,-37.60051727
889,1.665393233,-3.798673868,-11.29004574,169.1910858,-16.98301888,-35.34622955
890,0.773357809,-4.946638584,-10.91598606,186.7654114,-23.55584145,-33.94513321
891,0.648720622,-3.956702709,-9.341135025,199.899765,-35.46655655,-29.70552826
892,0.652041733,-3.469788313,-8.687955856,191.6953888,-37.42760086,-19.15537071
893,0.624917626,-3.793196678,-8.846604347,157.9833832,-37.05480576,-13.02014351
894,0.844157815,-4.331085205,-8.721761703,110.2851944,-23.34486389,-9.060278893
895,0.946140051,-4.851699829,-6.854976654,67.98661804,-11.97874165,-0.836800098
896,0.395913512,-5.118947506,-7.093085766,32.10949326,-8.994556427,7.829244614
897,0.353410304,-5.811047077,-8.679008484,-8.047101021,-21.64179039,12.74068451
898,0.152613118,-6.451871872,-8.610884666,-33.98918533,-23.08866501,8.897088051
899,0.886264622,-4.863057613,-7.202332973,-54.47333908,-9.358837128,8.515420914
900,1.478119493,-3.90282321,-6.415000439,-86.99965668,-3.742330313,15.6102438
901,0.728040278,-5.114864349,-5.89782095,-115.5997543,-3.422273159,21.67333221
902,0.127277657,-4.646050453,-7.438209534,-126.605629,-10.3455286,22.0037365
903,0.3426404,-4.590772629,-8.983055115,-134.7591858,-7.996678829,23.7916851
904,0.711274147,-4.109224796,-9.945729256,-126.746254,-11.14362335,24.62620926
905,0.798606098,-4.028133869,-10.67568302,-120.3318863,-14.5804081,23.60210228
906,0.906665742,-3.856194735,-10.81272316,-110.4858017,-22.05327034,22.49541283
907,0.2741355,-3.73639369,-10.72672272,-93.35932922,-29.296175,26.12465096
908,-0.256002128,-4.244672298,-10.51984501,-69.54195404,-33.95398331,29.16273689
909,-0.623008013,-4.892896175,-10.21730042,-43.7305069,-33.67304993,30.65267372
910,-0.804162383,-5.092245579,-9.966744423,-28.62521935,-28.11307526,28.20297241
911,-1.061286688,-4.418000221,-9.601211548,-22.1117363,-26.26464272,23.27651405
912,-1.445248604,-2.767755747,-9.677386284,-26.95330048,-24.58222771,12.80432892
913,-1.677211285,-1.214351177,-9.85942173,-41.93750763,-15.95835495,0.057667401
914,-1.526326895,-1.264466166,-10.11305237,-59.86194229,-10.08314323,-8.807537079
915,-1.425605178,-2.227153778,-9.747421265,-68.50614929,-1.141366482,-16.31100845
916,-1.763085604,-1.625651121,-9.293987274,-69.6625061,-0.356004149,-23.40218925
917,-1.72183466,-1.310161114,-9.802042007,-70.46774292,0.200308025,-23.63388062
918,-1.428405404,-1.628534794,-11.18823147,-69.63463593,-7.755924702,-24.46003532
919,-1.027887344,-1.877142191,-12.16871071,-58.5573349,-10.28655529,-33.4218483
920,-0.723376513,-1.775146723,-10.53593349,-43.76718521,2.842993259,-39.32184982
921,-0.925519466,-2.364972591,-9.356714249,-36.18902969,10.93383312,-35.98190308
922,-1.220672846,-2.185416937,-9.370326042,-19.45907211,10.58457279,-28.55492783
923,-0.546320617,-0.79583478,-9.115867615,-1.029996991,7.298451424,-19.55078506
924,-0.993792832,0.043816093,-9.379393578,3.552522421,-2.955048084,-15.37260628
925,-1.65965414,0.489178926,-10.11209583,7.979224205,-10.56454086,-12.89045906
926,-1.719063878,-0.453508854,-10.27263546,13.4146719,-13.44770527,-10.39167023
927,-0.682032645,-1.750761271,-9.918223381,20.68904877,-18.72420883,-0.513145387
928,-0.625648737,-2.156801224,-9.35700798,28.42392731,-24.14456749,5.219151974
929,-0.913237095,-1.435211897,-9.051403999,29.15759277,-30.08859825,11.84606838
930,-1.438862562,-0.185822994,-8.521947861,19.79960632,-25.90473557,16.13108253
931,-1.25853157,0.321387321,-7.883629799,6.481517792,-22.06405449,18.4480114
932,-0.564922035,-0.237427652,-7.822300434,-5.420238972,-24.47166824,22.8650074
933,-0.945493281,-0.753415704,-8.341856956,-2.682889938,-33.61128235,26.90075493
934,-1.798692822,-0.240366787,-8.524687767,8.233934402,-41.80894089,30.41780472
935,-2.333585024,1.294403434,-8.799418449,14.34842777,-38.84497833,37.32123184
936,-2.672324896,2.119053602,-8.851791382,-6.213985443,-18.05157661,47.08507538
937,-2.99300313,1.437563896,-9.123193741,-41.54159927,3.881784916,54.84943008
938,-3.152960539,-0.424034953,-9.742368698,-70.82939148,11.71033001,56.6294899
939,-2.143823147,-1.641612291,-10.1211853,-93.33226013,19.58709145,52.08847046
940,-1.209246397,-2.007522106,-9.654663086,-105.5961227,38.65100098,47.95942688
941,0.093033999,-0.084121615,-8.741059303,-115.7301559,51.6265831,48.41990662
942,-0.597004652,2.267584085,-10.0214138,-137.8018951,55.17532349,52.50151825
943,-1.409517527,3.995862484,-10.45333004,-164.9751587,40.68812561,53.5873909
944,-1.372926474,4.953802586,-10.64848614,-194.1474915,29.14295197,54.54074097
945,-0.96914947,3.637633085,-11.74652767,-197.6530151,9.269649506,57.22793198
946,-1.214702725,1.702734232,-12.62135983,-193.6165314,-5.584216595,59.61523819
947,-1.911729813,1.141711116,-12.39576149,-184.5490112,-8.019729614,59.42983246
948,-2.055302143,1.364707947,-11.02137947,-177.2648926,-1.928571224,57.02266312
949,-1.565005183,2.075908184,-10.1555357,-168.2245941,-1.944771528,49.43638229
950,-1.054453969,2.629995346,-9.748700142,-152.6666565,-7.320341587,42.15198898
951,-1.285655379,3.064923286,-9.371291161,-138.5863495,-17.34204292,38.02269363
952,-1.904521108,3.228583336,-8.968572617,-125.7607651,-23.96067047,35.91575623
953,-1.31739974,3.570606232,-9.352087975,-106.7432175,-17.48431587,31.9305687
954,-0.531540811,4.770906448,-9.060824394,-87.53041077,0.633356452,24.428339
955,-0.098270878,5.023663998,-8.802218437,-76.47590637,5.872018337,15.58268261
956,-0.109477863,4.667524815,-8.712213516,-54.19943237,8.899354935,3.177532434
957,-0.573025942,4.687439919,-8.421207428,-23.44383049,8.255786896,-10.0184269
958,-0.516688049,4.841400146,-7.977560043,4.669957638,9.291699409,-18.4540863
959,-0.049477015,4.367487431,-7.406256199,25.178339,18.35051346,-15.07259369
960,-0.322187334,4.099847794,-7.128789902,54.78437805,22.1480999,-11.8700695
961,-0.783106923,4.207073689,-7.002864838,76.9569931,20.41570091,-19.63165855
962,-0.699622035,5.33191967,-7.588307858,88.25587463,12.0186491,-18.03271675
963,-0.2222583,5.610661507,-9.865207672,105.8755188,10.81301594,-10.12827778
964,-0.42669338,5.040789604,-10.77047729,118.3671646,11.58602142,-4.54962492
965,-0.885299861,4.359581947,-10.73813343,120.5867462,2.395614624,-4.543995857
966,-0.721122324,4.009094715,-10.65497398,113.4139633,-3.776937962,-7.969864368
967,-0.393637985,3.207548618,-10.17271519,97.67341614,-9.35084343,-9.04139328
968,-0.654961526,3.408851147,-9.565932274,81.54029846,-12.23651218,-7.472628117
969,-0.963344157,4.092986584,-9.209478378,66.5759964,-17.5375843,-2.82015276
970,-0.581882,3.87683177,-8.95751667,52.79890823,-22.7962513,1.289985776
971,-0.583293736,3.008497715,-8.942851067,47.20182419,-23.10435867,1.145078182
972,-0.814777315,2.303813934,-9.420807838,47.35458374,-22.55766296,-1.16950655
973,-0.937041819,2.475698233,-9.901431084,44.85890579,-20.86474037,-1.764134765
974,-1.206736922,3.095138788,-10.35988617,46.78709412,-17.40898514,0.209552139
975,-1.215702295,2.827418566,-10.5476923,43.56667709,-12.87722778,-0.52200973
976,-1.17510736,2.574477673,-10.40837765,40.96397781,-3.246652603,-2.961799383
977,-1.027075052,2.490251541,-9.950799942,35.69784546,9.934689522,-1.90512681
978,-1.459566832,2.246678591,-9.65008831,34.94329453,26.97060013,1.252674341
979,-1.3741225,2.183811426,-9.815906525,32.62807465,33.04624176,2.134117603
980,-1.357200861,1.234119654,-9.676907539,29.85619164,25.08343124,-0.338812977
981,-1.278784394,0.557404637,-9.567816734,33.26900864,18.68744469,-2.741348028
982,-1.065967798,0.287766874,-8.833242416,36.07263947,14.53547573,-4.432730198
983,-0.818340659,1.403960705,-8.375246048,30.1371212,14.02718353,-3.95119071
984,-0.804076195,2.015511036,-8.72599411,10.50556946,10.51554489,-1.221502662
985,-0.876145542,1.525113583,-8.876672745,-4.443823338,6.873796463,-0.450994879
986,-0.849721968,1.118166924,-9.150060654,-9.468385696,3.820238352,-1.072641134
987,-0.862559974,1.83202672,-9.6690588,-14.93526936,4.854595661,-2.245050669
988,-0.55947727,2.698248148,-10.18557358,-27.3162117,9.601101875,-0.142182931
989,-1.127506495,2.527680159,-10.29439449,-40.54073334,15.11402512,4.017942429
990,-0.272127599,2.038009644,-10.44314575,-42.78459167,12.14088726,-1.592794418
991,-0.901664138,1.364305496,-10.56929016,-29.47973824,1.257638574,1.343441367
992,-1.1532408,1.667775273,-9.713724136,-20.24662399,-8.810738564,2.856858015
993,-0.411199182,1.636607409,-8.797937393,-22.52956009,-19.93727875,-2.730610847
994,0.018810578,1.863985896,-8.56907177,-25.88870621,-28.0690136,-14.6158247
995,-0.137730598,2.870865822,-8.945693016,-25.60498047,-35.16654587,-28.31291008
996,-1.62152791,3.130087137,-9.687412262,-30.19787788,-27.44981384,-31.24343681
997,-3.350161314,1.836431623,-10.29126835,-36.01104355,-14.4513216,-23.29237556
998,-3.123847008,-0.022772916,-10.51085281,-21.49717903,-3.703728676,-19.04964638
999,-2.081442356,-0.7850613,-9.96224308,1.664084911,7.675932407,-18.16390419
1000,-1.464018464,-0.602112114,-8.905755997,26.61596107,22.42270851,-13.34057331
1001,-1.558038354,-0.339057505,-8.29563427,55.31242371,24.25382996,-14.87060928
1002,-1.261586428,0.497643441,-8.154812813,90.95778656,9.267943382,-26.52331734
1003,-1.463280439,0.816691697,-8.793379784,115.9137497,-0.725805581,-36.95518494
1004,-1.177998304,0.603230774,-9.727702141,129.8825989,6.167216301,-49.43548965
1005,-0.460684747,0.299080461,-8.702563286,132.7845154,21.91841698,-52.98806381
1006,-0.7298311,-0.255553067,-8.74726963,137.0612183,31.99068451,-54.08599091
1007,-1.407279372,0.431748748,-10.70584202,162.3666382,33.29468155,-59.09458542
1008,-0.830628753,0.380902648,-12.33363724,172.5227966,23.78642845,-58.91798401
1009,-0.164158419,-0.681984067,-12.3925724,174.2514496,18.24153519,-56.42052078
1010,0.248701558,-1.268643618,-12.46817303,164.4812927,11.48379707,-49.54639435
1011,0.366168708,-2.103461742,-12.17472553,159.826416,8.090703964,-46.50634384
1012,-0.206256285,-2.811892033,-11.82743835,160.5917358,3.794810772,-50.44133759
1013,-1.490047097,-1.799939871,-11.14565468,168.3939972,-2.422812939,-54.85668182
1014,-1.132196903,-1.189847589,-9.962942123,170.1091461,-3.520860672,-49.00594711
1015,-0.970228612,-1.886507988,-9.040029526,156.7292786,-8.737998962,-34.95527649
1016,-0.899598658,-3.986525774,-8.652375221,135.989975,-14.70396805,-25.86565781
1017,-0.567169189,-5.265865326,-8.651623726,110.166832,-24.01037407,-24.77403831
1018,-0.194018096,-5.285224915,-8.207380295,88.26535034,-27.11950493,-25.67190742
1019,-0.540716171,-4.24953413,-8.341768265,69.44200897,-26.91202927,-24.20130157
1020,-0.761457801,-3.177499771,-9.212482452,46.02269363,-24.22539902,-18.07281494
1021,-0.398958236,-3.077135324,-9.142873764,22.97398376,-21.94541931,-13.91454887
1022,-0.34516567,-3.977936745,-8.683066368,6.075072765,-19.22170067,-8.496648788
1023,0.380561709,-4.068996429,-8.433408737,-5.892522812,-18.62518883,0.997756839
1024,0.142108753,-2.93866992,-8.065829277,-20.38401794,-15.06255627,11.46494102
1025,-0.362591356,-3.347679377,-8.474235535,-44.37073517,-7.090278625,21.33757401
1026,-0.826550126,-3.932562351,-9.201013565,-54.44911957,-7.515645504,20.99142647
1027,-0.962580919,-3.91889739,-9.381160736,-55.09239578,-1.131268978,20.68807602
1028,-0.699729145,-4.02096796,-10.03949356,-59.55234528,-4.02916193,26.32161903
1029,-0.888803244,-3.550158501,-10.65342712,-66.43508911,-6.609282494,29.80304909
1030,-0.78818059,-2.579299927,-11.29407692,-77.61872864,-1.203742981,30.35683823
1031,-1.053055763,-2.609888315,-10.90394497,-78.94921875,3.584884644,33.29220963
1032,-1.804922342,-2.181395054,-10.84824371,-68.46209717,9.168050766,32.66187286
1033,-2.215375185,-2.831840992,-10.19950867,-62.94552994,21.35253716,29.07944489
1034,-1.768133759,-3.046997547,-9.979474068,-55.99872589,23.52770615,24.99481201
1035,-1.177229047,-2.531068563,-9.984643936,-52.57299805,20.96631622,19.21538544
1036,-1.172615528,-1.986338615,-10.17374611,-49.49454498,24.2345295,14.93775558
1037,-1.27420187,-1.619777799,-10.10519791,-47.52716064,28.6715126,10.27681446
1038,-1.084591746,-1.569378972,-10.17601871,-47.07925415,36.67624664,8.149053574
1039,-1.417130113,-1.595224857,-10.26796818,-53.10764694,37.69835663,4.847839355
1040,-1.474771142,-1.698554993,-10.10126114,-57.87217331,32.84096909,1.38215971
1041,-1.171639204,-1.843366504,-10.18528938,-61.73910522,20.58709145,1.734236121
1042,-0.935966671,-1.808790445,-10.81759167,-63.31386566,5.201769352,-0.700792491
1043,-1.194558263,-0.646809459,-11.19985199,-52.79270172,-2.460873127,-5.952814579
1044,-0.642839253,-0.374423414,-10.85386753,-40.26897812,-3.577264547,-8.470920563
1045,-0.158892363,-1.100260377,-10.17191601,-23.32826042,-1.700783134,-9.782082558
1046,-0.721362531,-2.04803133,-9.140093803,-9.068021774,5.688661098,-7.857064724
1047,-0.593421102,-2.270932674,-9.355117798,3.758562565,4.48742342,-8.089741707
1048,0.12039268,-2.086245775,-9.646555901,14.24891186,-2.975667715,-11.01004791
1049,-0.23418504,-1.485594988,-9.864535332,20.96412659,-16.2749424,-20.00955772
1050,-0.586595476,-0.824090779,-10.07093525,17.10096169,-25.04267693,-25.04471397
1051,-0.742102623,-0.797720134,-10.02661228,6.194009781,-24.71830368,-24.26669693
1052,0.106125347,-1.424997687,-9.80321312,-0.670190752,-25.72287369,-18.71109772
1053,-0.180037573,-1.733006358,-9.485729218,2.094806433,-27.26573372,-16.78107071
1054,-0.268022239,-1.819569945,-9.36934948,7.386942863,-32.933815,-13.13136578
1055,-1.180562735,-1.346372604,-9.192858696,6.641421795,-37.62290192,-10.89966583
1056,-1.940752387,-0.945545137,-8.599593163,-2.411418915,-41.70360184,-6.938287258
1057,-1.920064211,-1.198504686,-8.129852295,-14.77739811,-46.13109589,-2.040983915
1058,-1.132583857,-1.663047194,-8.038315773,-19.1872673,-50.4103508,1.21740973
1059,-1.289138317,-1.645326614,-8.391708374,-10.16757679,-51.53661728,-0.820324957
1060,-1.788284183,-1.154214263,-8.994211197,5.148234844,-49.11040497,-3.121875525
1061,-2.366516829,-0.516379833,-9.587302208,0.469291776,-43.70281219,-0.803904772
1062,-2.353374243,0.17117162,-10.01085472,-15.81592941,-31.21494102,2.69465971
1063,-2.282738209,0.720621109,-10.15277672,-28.17557144,-14.80478001,10.16477203
1064,-2.359914541,1.101788759,-10.26888561,-40.22953796,0.062905237,20.38536835
1065,-2.203088522,1.17176199,-9.853115082,-58.28158188,9.169126511,28.76348495
1066,-2.036941051,0.869502664,-9.599971771,-85.76532745,16.74879456,37.93240356
1067,-2.005526543,0.242982239,-10.19093609,-102.2781525,23.8086586,47.9417305
1068,-1.746496558,-0.060043946,-10.28323078,-111.6079254,37.95015717,55.61835098
1069,-1.723851562,1.279708982,-9.719339371,-127.5445099,51.56615067,58.43871689
1070,-1.370211363,3.877070189,-10.36060143,-131.9803009,56.94468689,56.98993683
1071,-1.633115768,4.342233181,-10.49607182,-139.7209015,49.8592186,58.83777618
1072,-2.533942461,4.34798193,-11.03848553,-145.192337,36.87361526,57.91167068
1073,-1.740043402,3.897656202,-11.19588566,-144.4634552,25.70431328,53.66528702
1074,-1.300404191,3.245798111,-11.12071609,-138.8445129,9.837134361,49.41246033
1075,-1.642373085,2.662145376,-11.38744354,-131.0518036,-1.025135994,49.36915207
1076,-1.86199224,2.661957026,-10.85902977,-133.0211029,-6.530650139,51.18774796
1077,-1.498503208,2.235673904,-10.12601471,-129.6416321,-12.17166424,47.36381912
1078,-1.21045506,1.596553802,-9.235347748,-117.8404922,-17.47099495,38.43376923
1079,-0.600476205,1.300453067,-9.477517128,-90.33985138,-14.59060383,29.90400887
1080,-0.428668618,1.932168007,-9.811639786,-59.32342529,-5.831131458,25.03287888
1081,-0.798496485,3.900176764,-9.545574188,-35.09671402,10.92045021,25.69632721
1082,-1.368154526,5.614320755,-7.975549698,-31.98221779,15.87841415,28.75008392
1083,-1.355427861,5.354933262,-7.725251198,-39.77941895,12.01631165,31.34160805
1084,-0.990772128,4.295436859,-7.884299755,-36.41064453,12.48389626,28.35115433
1085,-0.647706389,3.932180882,-7.95789957,-26.54195023,23.6131649,20.5679512
1086,0.574108779,4.002039909,-7.737040043,-18.49066353,32.57675171,7.486629963
1087,1.344551086,3.910425425,-7.294024467,-3.975564241,36.19351578,-3.528543949
1088,0.806943834,3.587804556,-7.08210659,17.87328339,33.12793732,-14.39349174
1089,-0.046737395,3.821736574,-6.834814072,39.60762405,26.90025902,-19.47765923
1090,-0.64991951,3.843523264,-7.501078129,61.84297943,20.67271614,-22.25507545
1091,-0.103558324,4.263225079,-8.403578758,79.75505829,10.99889851,-21.6826992
1092,0.255273163,4.541016102,-9.425918579,82.7938385,9.853007317,-15.06684113
1093,0.812055647,5.244138718,-9.972171783,80.79950714,1.00156951,-8.783355713
1094,0.907793164,4.745424747,-10.23477459,83.9516449,-13.16484833,-7.565743446
1095,0.689839363,3.776473045,-10.27821445,83.45549774,-21.68896866,-13.16025162
1096,-0.019603353,3.470698357,-10.15651798,82.10119629,-16.9295311,-19.26395798
1097,-0.435456574,2.956706762,-10.13295078,71.85190582,-13.2811842,-17.88023949
1098,-0.692669511,2.866531134,-10.10525036,63.39635468,-2.801743746,-11.32478905
1099,-0.576517403,3.045796871,-9.769602776,57.38243484,5.088394165,-4.159186363
1100,-0.336192697,3.11299324,-9.653424263,49.09695435,5.158633232,2.019463062
1101,-0.302556753,2.731684923,-9.698339462,39.60748672,4.542975903,7.053521156
1102,-0.461766899,2.108772755,-9.766460419,33.45436478,0.42472434,7.110805511
1103,-0.793929756,2.281257629,-10.16326141,30.12180328,-4.814184189,2.110262632
1104,-0.630513668,2.937240362,-10.39584923,24.56537056,-10.1873436,-3.31839633
1105,-0.373581648,2.743208647,-10.28737545,16.22783089,-12.15750027,-3.559254408
1106,0.102068424,2.287024498,-9.995949745,8.766486168,-2.082511425,-0.29920122
1107,-0.476789325,1.797565818,-9.487820625,11.91344166,14.34227085,2.654029608
1108,-0.697021961,1.469151616,-9.739601135,22.44945335,21.901968,3.23025918
1109,-0.918909729,0.838379025,-9.686835289,28.40425873,14.62466335,3.461863995
1110,-0.914457977,0.61132741,-9.521372795,30.55405235,3.115974665,3.080385923
1111,-0.183960959,2.110663414,-9.698359489,30.58719254,-7.869933605,1.425582409
1112,0.350211382,3.314244509,-9.801441193,17.65345192,-12.73997498,1.127357483
1113,-0.488861024,2.490419626,-10.29375458,1.129571557,-9.473890305,2.841639996
1114,-0.820618033,1.054265499,-10.13028431,0.612771153,-5.023170471,3.934713602
1115,0.087641492,0.758026361,-9.941250801,13.2680521,-1.166025162,1.274360538
1116,0.216156647,1.337385893,-10.11209297,15.69313335,2.961317539,0.506376386
1117,-0.478664011,1.758667707,-9.938533783,-0.563895762,9.73350811,0.4358899
1118,-1.150875568,0.844646931,-10.45788002,-13.43782711,9.986339569,3.883363485
1119,0.501952827,1.096924782,-9.836984634,-17.54548264,-5.605865479,-4.760094166
1120,0.227553278,0.351737797,-9.765501976,-8.027751923,-32.35016251,-10.52593613
1121,-1.097636223,0.331904829,-10.26043701,9.215146065,-42.24956131,-15.57119751
1122,-1.932732701,0.207308218,-10.61279011,26.48133469,-35.7233429,-21.59006882
1123,-2.05548358,0.211604059,-10.78599834,35.38850403,-21.58060074,-25.45666885
1124,-1.947387576,0.615644753,-10.35107994,49.09006119,-8.925215721,-21.5740757
1125,-1.482802987,1.342574954,-9.939492226,65.56276703,2.238495827,-15.42238808
1126,-0.595957696,1.175071478,-10.15609837,78.21252441,20.85380936,-8.869353294
1127,-0.521012664,-0.075785384,-8.855323792,73.73331451,34.10780334,-6.778297424
1128,-1.748114586,-0.336700469,-8.845087051,61.74817657,23.19941711,-12.95829201
1129,-2.142755985,0.37937507,-10.26968098,68.55249786,13.21106052,-26.71878052
1130,-1.435944915,0.026762962,-10.39660835,89.10248566,26.18372154,-37.5195961
1131,-0.338265061,-1.420293927,-10.03911591,113.042511,38.87179184,-42.88836288
1132,0.553894758,-2.077044964,-8.87741375,142.6426544,51.89319992,-42.21321106
1133,0.115201861,-2.125699043,-8.62247467,159.6047821,61.33322906,-41.07304764
1134,-0.472119302,-1.502681732,-9.830600739,171.3100586,50.20507431,-44.5111084
1135,-0.279226542,-2.068232059,-10.92786407,180.274704,35.89493942,-49.91452408
1136,0.468954951,-3.360656023,-11.05491924,188.2502747,28.53818703,-48.89831924
1137,1.014961839,-3.669600248,-10.77112675,184.4438934,13.3140831,-42.44241333
1138,1.20345962,-3.03895998,-10.37485504,173.1680145,-8.451852798,-37.03095627
1139,0.655978143,-2.237344027,-10.12569523,159.1579742,-25.55133629,-38.09266663
1140,0.903689086,-1.102414846,-10.05199432,142.3790283,-41.33992004,-45.3110466
1141,0.794625401,-0.542318761,-8.734548569,130.5357513,-42.00225449,-36.89337158
1142,0.679488301,-3.043514729,-8.261781693,118.3921509,-30.75540352,-20.99642754
1143,0.222808465,-5.91275835,-8.612220764,99.36299133,-35.87783813,-14.00797176
1144,0.002256151,-7.22428894,-8.169111252,92.99835205,-42.88615036,-17.1145134
1145,0.771369398,-6.637203693,-7.726261139,72.48596191,-30.16098595,-15.69746208
1146,0.726237357,-5.758198738,-7.26098299,46.28130341,-19.08977318,-10.27507019
1147,-0.530322969,-4.333903313,-7.925095081,20.5597477,-14.16218472,-4.690919399
1148,-1.330420494,-3.157762051,-8.863454819,-7.242581367,-15.30934715,-3.919009686
1149,-1.016591072,-3.327572584,-8.191035271,-35.5941658,-15.23069191,-3.436019659
1150,0.781039715,-4.045780659,-7.400881767,-55.90716171,1.173983812,0.923284054
1151,1.343816757,-3.798796654,-6.823841572,-71.08242035,-4.365731239,4.847649097
1152,0.813812613,-4.01347065,-7.704994202,-94.72268677,-7.612128735,10.66179752
1153,0.35038349,-4.2628932,-8.248191833,-100.5616913,-12.6908865,12.24023438
1154,0.230555475,-4.079156876,-9.169946671,-102.7788239,-14.97473049,14.52289963
1155,0.104559131,-4.279067516,-9.993447304,-103.0167084,-18.50160789,15.72141361
1156,0.004262123,-4.357622623,-10.49592876,-101.0427475,-26.04828072,14.2473259
1157,-0.231786951,-4.623403549,-10.58084202,-94.49824524,-31.67496109,13.58202839
1158,-0.191973493,-4.786645412,-10.62708473,-80.97924805,-40.64596939,13.34184456
1159,-0.790679395,-4.193702221,-10.56529999,-60.28565979,-45.15530396,12.09681797
1160,-1.60413444,-3.414304972,-9.964075089,-46.8641243,-38.07188034,10.59269333
1161,-1.531006217,-2.837319851,-9.371124268,-42.75842667,-29.50046158,8.694954872
1162,-1.87889266,-2.478730202,-8.862747192,-44.98744583,-19.02292442,6.123075008
1163,-2.365377903,-1.868540525,-9.836016655,-51.21776962,-12.41415596,2.868624926
1164,-2.156170845,-1.044114828,-10.16886902,-52.23270035,-8.806764603,-2.409814119
1165,-2.075725555,-1.042115331,-10.23574543,-63.60280991,-7.609109879,-2.382431269
1166,-2.18539381,-1.12557435,-10.59459496,-76.63555145,-1.167137146,-2.573034763
1167,-2.09342432,-1.392111897,-10.85300827,-84.81258392,5.550555229,-4.176263809
1168,-1.788931131,-1.989485025,-11.06215954,-83.97093201,5.326562405,-1.326892614
1169,-1.566146851,-2.533852816,-11.22452164,-75.18965149,2.774128437,0.653175294
1170,-1.271203756,-2.337557793,-11.12457466,-61.49224091,11.74823284,-2.05254674
1171,-0.981554151,-1.587058783,-10.33272648,-49.02579498,26.29559135,-3.993684769
1172,-0.982162952,-1.604124069,-9.614225388,-49.31232071,30.90961838,-4.960067272
1173,-1.125848651,-1.651219964,-10.26035023,-37.56760788,22.61061287,-8.247506142
1174,-1.007136106,-1.512297869,-10.36730385,-15.8915472,13.31456566,-8.211834908
1175,-0.764268279,-0.673218906,-10.51238632,3.882783651,5.157336235,-8.121769905
1176,-1.018536687,-0.196633339,-10.24232388,9.809272766,-4.056368828,-8.468260765
1177,-0.667928338,-0.357282549,-9.825200081,12.73473454,-8.156415939,-2.767716646
1178,-0.478720039,-0.135807738,-9.324275017,16.21730042,-7.681967735,3.211592674
1179,-0.552759588,0.532447755,-9.165208817,11.90756226,-9.759518623,8.476058006
1180,-1.374832749,-0.291396052,-9.227202415,6.160070419,-16.31801605,14.04327679
1181,-2.058599949,-0.580473959,-8.687060356,17.4891758,-26.75038147,17.17094994
1182,-1.731302142,-0.884194493,-8.209124565,22.98732185,-39.47916031,21.09672737
1183,-0.912309527,-1.689487934,-8.402927399,25.60772324,-43.92985916,24.28295517
1184,-0.940099478,-2.512152433,-9.05110836,31.25411606,-35.59644699,20.77239037
1185,-1.881319642,-2.278303862,-10.91926098,36.66679764,-22.93029404,10.75643539
1186,-2.366406679,0.575322032,-11.38132286,37.52850723,-10.66629314,2.660648823
1187,-1.685559392,2.984452248,-9.982771873,5.127446175,-6.663202763,3.533810377
1188,-1.495272994,2.415155888,-9.540647507,-37.96575546,5.174385548,15.51703358
1189,-1.72132349,1.657543659,-10.19141579,-70.01728821,8.739671707,31.32989311
1190,-1.512797832,1.46748209,-10.34069824,-100.7001953,20.88348007,44.58087921
1191,-1.527947783,1.662903309,-10.23561573,-124.5300446,28.59475327,56.34329224
1192,-1.302751184,2.168791533,-10.7648859,-151.5767212,36.04089737,63.67473984
1193,-1.172505498,2.525083065,-11.31207561,-181.3556519,46.46222687,60.69332886
1194,-0.902267635,1.948167443,-11.5828476,-179.1251221,45.84630966,49.5739212
1195,-1.10330987,1.392277718,-10.93767452,-172.8033447,51.81560135,40.69284439
1196,-1.192855239,1.524647236,-11.1303606,-158.0036621,43.58225632,43.08322144
1197,-1.004787326,1.818537951,-11.73974991,-141.7621155,29.93040848,50.90146637
1198,-0.854226887,2.722532272,-11.44053364,-138.0824585,22.110466,50.56987381
1199,-0.838629365,3.371164322,-10.61816216,-141.1697693,12.86399651,42.38814163
1200,-0.838323832,3.947644711,-10.32661724,-148.3897705,4.833681583,36.97753143
1201,-1.023297429,5.279566765,-9.462047577,-155.1720734,-0.637960613,36.47018814
1202,-0.547909856,5.820682526,-8.753664017,-158.6807251,-8.579359055,34.97359467
1203,-0.405734956,5.459553719,-8.072166443,-147.6431122,-17.02846146,29.02555466
1204,-0.76206243,5.259500504,-7.785011292,-128.6467438,-16.34056091,23.2833004
1205,-0.435796142,5.677993774,-7.372806549,-108.1607361,-9.489562988,21.87529182
1206,-0.175744981,5.876093864,-6.802310467,-95.87768555,1.124999523,23.31869125
1207,-0.432385981,5.819139004,-5.92860508,-86.93149567,7.506031513,24.39859581
1208,-0.091347016,5.49047327,-6.323721409,-75.78193665,6.766215801,20.30876732
1209,0.061001323,5.244218349,-6.854005814,-56.28118134,4.345116138,10.29101753
1210,0.672078907,5.21317482,-6.998538017,-24.529953,0.365340292,-1.86576736
1211,1.133094311,4.438307762,-6.919286251,12.28713894,-6.999847412,-7.969020844
1212,1.6207726,2.308357239,-7.483313084,49.58784485,-4.43829155,-7.584084034
1213,0.127300158,2.092507362,-6.993962765,86.61576843,6.760220528,-12.62726784
1214,-0.463806748,4.503905296,-6.417138577,113.714653,13.45073128,-22.31899643
1215,-0.207095623,6.770089626,-6.629916191,117.6672363,5.565219879,-25.50196838
1216,0.515414059,6.644117355,-8.25226593,116.5220337,-10.59209061,-21.62969017
1217,1.108081698,4.432953358,-9.283748627,109.0674591,-18.39473534,-18.55255699
1218,1.279989243,2.950178623,-9.746723175,100.9876251,-26.64243317,-15.00030136
1219,0.735971868,3.506634235,-9.466775894,102.4013901,-29.60100937,-15.17060661
1220,0.027732644,4.365232944,-9.24933815,105.9842911,-36.24635315,-18.28434944
1221,-0.185986787,4.149549007,-9.695627213,98.39626312,-42.2339859,-18.64828682
1222,-0.290156722,3.870065689,-10.01747704,78.51306915,-35.53183365,-17.1518383
1223,-0.395835429,3.664666414,-9.838303566,59.55344391,-24.15272141,-11.76500511
1224,-0.814328969,3.697746038,-9.509420395,51.54146957,-17.40053749,-8.940842628
1225,-1.166569471,3.415017366,-9.502083778,52.29440308,-19.81531906,-11.30477333
1226,-1.715142965,2.578420639,-10.23210144,63.939991,-19.67860603,-4.43900013
1227,-1.74702847,1.866396308,-11.37074184,69.47545624,-18.57901764,5.600472927
1228,-1.675298452,1.325366259,-11.33016968,71.62290955,-13.64488697,14.3242836
1229,-1.167484641,0.698114216,-10.5887394,71.41978455,-4.129324913,14.84120083
1230,-0.995205641,0.477158159,-10.09671116,71.98959351,6.562863827,6.096293926
1231,-1.02191329,1.359008431,-10.12006092,74.72370148,19.87437439,-3.395463705
1232,-0.726849139,2.066435099,-10.10059834,71.31562805,30.81068611,-3.850906372
1233,-1.147172213,1.489144087,-9.553544998,74.84220886,31.84596252,2.433583498
1234,-1.680444241,0.623064995,-8.434038162,91.52567291,24.50028419,4.731981277
1235,-1.718446732,0.838685572,-8.498638153,94.07511902,9.568207741,-1.040721655
1236,-1.31717968,1.347710371,-9.618268013,77.85359955,-6.776325226,-3.589704037
1237,-1.035948634,1.218563795,-10.25620651,60.46408463,-15.69191742,-0.784316421
1238,-1.062584758,1.005371809,-10.36538601,47.32637787,-16.33781242,0.365598887
1239,-0.824744284,0.822823286,-10.46948338,33.37080383,-8.564351082,-0.475200772
1240,-0.594965756,0.79365474,-10.13386631,20.4953289,3.369355679,-1.815488458
1241,-0.791839778,0.879312038,-9.880739212,10.31266594,9.002959251,2.342142105
1242,-0.673902571,1.455291033,-9.656870842,-5.604387283,6.927443504,4.731665611
1243,-0.422157556,1.79879117,-9.995768547,-22.22810555,1.813881874,3.64610219
1244,-0.210257575,1.649028301,-10.50318336,-38.28430939,-5.480077744,0.654215932
1245,-0.468456089,2.212745428,-10.45305634,-49.18980026,-10.68600082,-0.664559364
1246,-0.364367038,0.781386137,-9.872037888,-53.00618362,-16.48143196,1.554528475
1247,-1.215680361,-0.353636056,-9.219073296,-47.42311859,-16.50320053,10.29139233
1248,-2.072387457,-0.921456337,-9.026978493,-36.04143906,-17.11176109,11.59487438
1249,-2.166535616,-0.970001101,-9.188045502,-24.14292336,-18.10072708,5.274210453
1250,-1.941822767,-0.832942188,-9.279824257,-13.91767979,-24.81079483,-5.190845013
1251,-2.307644606,0.03867485,-9.931575775,-0.631899536,-29.03517914,-13.05647278
1252,-2.167139292,0.703935385,-10.42900562,10.33224487,-19.86864471,-18.71677208
1253,-1.339775562,0.45353058,-9.720043182,29.65685654,10.0357399,-25.14970589
1254,-0.661910594,-0.516411781,-8.41414547,58.26111984,40.65062332,-30.56675911
1255,-1.494102001,-1.251039147,-9.022133827,76.15991974,61.33770752,-32.22929764
1256,-1.942347407,-1.524397612,-10.50430107,89.73228455,55.00214767,-40.5513382
1257,-1.380515337,-1.352797508,-10.37813187,109.8585892,39.97803116,-48.28712082
1258,-0.913660407,-0.854548275,-10.75361729,128.3151245,37.82006073,-54.65634537
1259,-0.610419035,-0.47129941,-9.5058918,138.2904663,39.00557327,-55.60055161
1260,-0.954207659,-0.249079034,-9.573557854,147.7705688,35.71474457,-56.44449615
1261,-0.989236474,-0.0752002,-10.94009209,157.3861847,19.86414528,-56.23368073
1262,-0.482877851,-0.562244594,-12.48630524,159.4655609,6.125055313,-53.37673187
1263,-0.674392223,-1.548177958,-12.10443592,150.3394775,9.298051834,-48.90910339
1264,0.323880255,-3.828236341,-11.04474258,151.9313049,12.90722847,-40.17885971
1265,1.075423717,-4.130459309,-11.36973476,151.5951691,-0.357987612,-39.16637039
1266,0.940837979,-4.737670422,-11.11815929,158.2942352,-12.7033968,-41.2606163
1267,0.447636694,-4.471415043,-10.92152214,163.3805237,-25.48609734,-42.73921204
1268,-0.316402733,-3.122704268,-10.35500813,156.3394928,-30.90402412,-40.9296608
1269,-0.525218725,-2.922404289,-9.386965752,134.2133331,-28.65424156,-34.9663887
1270,-0.545137823,-4.088313103,-9.28501606,108.9836044,-29.03730392,-29.78491783
1271,-0.536874831,-5.610069752,-9.359552383,101.0960083,-26.95778275,-30.34435844
1272,-0.987281919,-6.339072227,-8.657375336,99.02988434,-21.47901917,-26.97761154
1273,-1.315770507,-6.416929722,-7.693648815,92.43440247,-28.88145828,-19.79490089
1274,-0.984687924,-5.070459366,-7.754739761,66.81201172,-41.55049515,-11.04232121
1275,-0.652320266,-4.075129032,-8.442768097,31.27020836,-47.39394379,0.299146891
1276,-0.947635591,-3.91817832,-8.648260117,7.70472002,-46.93229675,4.093453884
1277,-0.700715482,-4.286026955,-8.485234261,-10.70421791,-39.33406448,1.994780064
1278,-0.198572993,-3.432529688,-8.163018227,-17.62653542,-30.23969269,2.956371307
1279,0.12920922,-2.464334726,-7.886162281,-31.37697792,-19.03773117,12.46107864
1280,0.142305255,-3.188377619,-6.992613792,-57.88015747,-4.886026382,20.86594391
1281,0.33218649,-5.176505089,-7.101305962,-79.35803986,-6.820571899,28.70943069
1282,-0.202692062,-5.614246368,-7.964096546,-94.93808746,-18.04975891,32.97997284
1283,-0.828715563,-3.831364393,-8.713355064,-94.91703033,-22.3188343,32.52155304
1284,-0.550831497,-2.791574955,-8.818487167,-100.9687576,-22.11194229,32.40470123
1285,-0.427506387,-2.807525396,-9.144198418,-110.7209244,-21.66700554,36.92430115
1286,-0.926631391,-3.406059027,-9.433588982,-118.3361053,-16.86625671,39.66212082
1287,-1.151477695,-4.165844917,-9.317157745,-114.779335,-12.39208317,40.04460907
1288,-1.626752853,-5.411775589,-9.635764122,-81.47809601,-2.41405344,27.62403107
1289,-1.954687834,-3.287546158,-9.272023201,-43.35558701,3.130906343,13.95809937
1290,-1.104960561,-3.000589371,-8.781553268,-26.97672272,9.904267311,1.224892497
1291,-1.471474648,-2.731036425,-8.444142342,-15.7358532,8.429623604,0.674536824
1292,-2.384898663,-1.708093405,-8.582193375,-15.73617172,8.727767944,2.985803604
1293,-2.558606386,-1.229503512,-8.74859333,-30.54734612,14.28460693,4.210398674
1294,-2.551950693,-1.825221419,-9.340841293,-58.35267639,14.98326492,6.672130585
1295,-2.51345396,-2.029444456,-10.28213692,-77.68690491,11.33594227,6.900238037
1296,-2.078594923,-3.148961306,-10.94693184,-88.63127136,9.743279457,5.510842323
1297,-1.918900847,-3.812863588,-10.92467308,-87.59416199,19.53347778,1.426783085
1298,-1.874498367,-3.00399971,-10.61437511,-74.8813858,25.75112915,-5.609362602
1299,-1.173244715,-2.295668364,-10.63018227,-64.18473816,25.98456955,-9.505670547
1300,-1.015527964,-2.427955151,-10.46911144,-56.64637756,24.12077141,-9.03458786
1301,-1.676063657,-2.355174065,-10.38354683,-48.51143646,25.58169937,-9.88792038
1302,-1.059097648,-1.390694857,-10.61076641,-40.18776703,24.23071671,-6.089896679
1303,-1.060977697,-0.582042694,-10.75406265,-33.33632278,16.32562828,-2.799103975
1304,-0.944220304,-0.825083971,-10.56966877,-28.76726723,4.80495739,-4.748500824
1305,-0.886327267,-0.713406086,-10.15677357,-18.74978828,-7.735503674,-8.00893116
1306,-0.79995513,-1.196214318,-9.664361954,-8.537365913,-10.42794323,-5.195482731
1307,-0.513174772,-1.628789663,-8.852273941,-2.299348354,-8.207429886,-0.538270116
1308,-0.884077132,-1.875749826,-8.938703537,4.176035404,-3.182076931,2.59893322
1309,-1.234347701,-1.936778426,-9.452011108,13.24124908,-3.242230654,3.704033852
1310,-1.899627447,-1.901131034,-9.844308853,14.83179188,-10.00308323,1.851800323
1311,-2.081206083,-1.828942537,-10.10062599,6.752427578,-19.63998413,6.225804329
1312,-1.643908501,-1.116290092,-9.643052101,-6.200560093,-18.33082581,16.97554588
1313,-0.355406046,-0.3232494,-8.805567741,-21.6555481,-8.041905403,26.95900726
1314,-0.739491284,1.245850205,-8.217798233,-40.93104935,10.59172153,30.67685509
1315,-2.430088043,3.026926279,-8.691526413,-61.92832184,22.43475723,35.16819763
1316,-3.015969992,3.622178078,-9.387598038,-92.22524261,16.85538483,42.35599899
1317,-2.745100498,2.7736094,-9.682452202,-127.7025146,17.75226784,47.72312927
1318,-1.780968666,1.290173531,-9.95980072,-136.6486206,12.21108532,53.85756302
1319,-0.864736378,1.734428644,-10.06794357,-133.6148682,15.78770065,60.7909584
1320,-1.326019168,3.597560644,-9.819821358,-156.978714,26.79570961,68.97314453
1321,-1.075691104,4.166209698,-11.39871311,-169.4033203,27.93725204,71.22449493
1322,-1.547527432,3.072724581,-12.28873158,-174.9123383,26.95065117,73.67536926
1323,-1.825443149,2.835816145,-11.66412258,-183.6545258,29.70095444,73.92464447
1324,-1.196001649,3.509104252,-11.1696167,-203.4819794,29.49384308,70.81500244
1325,-0.638004661,3.971965551,-11.68616581,-223.6387482,27.72113228,63.76791763
1326,-0.562951028,4.21932745,-11.61987305,-221.5808563,24.24591637,58.14325714
1327,-0.193658113,4.484289646,-10.72988605,-210.6182404,30.12568665,52.71761322
1328,0.067791201,5.295492649,-9.174385071,-198.2642212,30.35356522,44.52587128
1329,0.014696829,6.040667534,-8.434157372,-191.2736053,17.22176361,33.95350647
1330,-0.162682503,6.349265099,-8.218180656,-177.911438,7.189985752,26.57881165
1331,-0.143733099,6.331278324,-7.689343929,-153.9676666,4.683094025,24.32328987
1332,-0.081306659,6.120508671,-6.807169437,-125.0675507,2.916415453,23.80343056
1333,0.183744267,6.778636456,-6.125630856,-100.4678574,-2.738362074,21.59870148
1334,-0.005976577,7.388127804,-5.656532288,-84.04321289,-7.771092415,19.08797073
1335,-0.156530574,6.614551067,-6.383028507,-68.81260681,-12.10887241,15.55429745
1336,0.513091564,5.241651058,-6.896409512,-49.55938721,-10.81239223,8.833185196
1337,0.940292358,4.708184719,-6.980379105,-15.20055008,-13.12581635,-2.888354778
1338,1.983603716,4.262329578,-6.727941036,39.14890671,-14.95183086,-14.51042938
1339,1.835215807,3.672875881,-6.736012459,94.26927185,-17.5324173,-25.43893433
1340,0.815403163,3.986322403,-6.340601444,129.9701385,-4.308307648,-30.20167351
1341,-0.055939376,4.67316103,-6.271327019,150.5863647,3.225239515,-29.38520622
1342,0.143567771,6.563277721,-7.0815835,173.9624481,5.829877853,-32.71506119
1343,0.479653716,7.226688385,-7.554499149,168.7388916,-5.048923016,-32.31328964
1344,1.128480554,7.47533083,-9.710472107,155.8283997,-19.85468674,-30.13357925
1345,1.365300059,6.088552475,-10.55273533,135.1609039,-24.32866287,-20.77007675
1346,0.741226315,5.679732323,-9.960354805,118.8709869,-12.09503174,-17.27710533
1347,0.009897009,6.208805084,-8.921033859,107.5414352,-14.10469055,-18.57939339
1348,-0.416311681,5.453767776,-8.800719261,86.31056976,-20.95461845,-22.38490105
1349,-0.462264866,4.295205593,-9.304917336,68.36664581,-21.9863224,-25.94380951
1350,-0.564637601,3.649858952,-9.341666222,64.77934265,-20.12270355,-26.04629135
1351,-0.552166104,3.17271924,-9.292311668,71.36837006,-14.66188908,-22.91733742
1352,-0.625866473,3.179105043,-9.046051979,79.7119751,-9.896517754,-19.95380592
1353,-0.766183376,3.331964731,-9.377532005,86.83777618,-9.018095016,-19.51334953
1354,-0.664138436,3.402993202,-10.19836903,87.85787201,-13.31974888,-23.41943359
1355,-1.47739768,2.967889786,-10.77407932,88.89792633,-7.915182114,-22.73528481
1356,-1.455736399,2.147367954,-10.76825142,95.37841034,-3.024045706,-21.20046616
1357,-0.738898158,2.124047041,-10.23800468,101.9037628,-0.039387424,-18.74926567
1358,-0.256367385,2.400540352,-9.283396721,101.260582,-0.928962409,-16.17418098
1359,-0.304509401,2.827015638,-8.636187553,95.62306976,-2.190041304,-14.46014595
1360,-0.689298093,2.297346354,-8.842888832,88.97537994,-4.282930374,-12.37136936
1361,-0.751650691,0.84470737,-9.581671715,86.54122162,-3.938780546,-7.260605812
1362,-0.969883382,0.177223325,-9.578360558,86.63380432,5.122023582,-4.016082287
1363,-0.527275205,1.267451644,-9.304412842,82.85526276,9.093590736,-5.781844616
1364,-0.063869491,2.228746176,-9.213480949,72.03410339,6.863742352,-6.811997414
1365,-0.06490548,2.013259172,-9.213532448,55.66739655,6.201786041,-2.147565365
1366,-0.438818455,1.109153509,-9.326628685,38.98549271,8.406571388,3.131951332
1367,-0.611642659,0.193213612,-9.568845749,26.65523148,11.61410236,5.977318287
1368,-0.786894739,0.069470905,-9.941381454,16.93813705,17.4887104,5.066663265
1369,-0.50791806,0.284630507,-10.03129768,8.098497391,23.62084961,2.104395151
1370,-0.569160819,1.047327042,-9.597403526,-5.215217113,30.0023098,0.432894439
1371,-0.634860218,2.024074554,-9.481583595,-25.9864521,28.26949692,4.367230892
1372,-0.664326906,2.035538197,-9.589134216,-46.89832306,22.56164169,9.020880699
1373,-0.545391619,1.497195363,-9.95420742,-59.63544083,20.41166878,9.045331001
1374,-0.407528013,1.027748108,-10.41657734,-71.58817291,21.08613586,5.725076675
1375,-0.011009712,0.989206851,-10.2997179,-79.99167633,17.19504547,0.60374409
1376,0.704871476,0.687846184,-9.813803673,-81.04679871,5.89898634,-3.434852123
1377,-0.189016074,0.381653011,-9.781799316,-68.86323547,-7.063186646,-4.510838032
1378,-1.150695682,0.001010254,-9.788027763,-32.01107025,-9.092936516,-10.15684223
1379,-1.428390622,-0.330720812,-10.88437462,0.319672346,-2.106972456,-14.81353092
1380,-1.226771474,-1.091961861,-10.26115513,28.62661552,33.75993729,-17.28278732
1381,-0.776745677,-1.965933323,-9.449100494,71.1421814,69.41228485,-22.51359749
1382,-1.060188413,-2.271787882,-10.1181469,91.13027954,74.78986359,-28.98655891
1383,-0.87366426,-2.412246704,-10.23555088,111.0819321,62.27396393,-37.13092422
1384,0.022948742,-2.856755495,-10.24308014,139.0008545,52.48774719,-40.97335052
1385,1.210310221,-2.745111465,-8.990550995,157.5371094,37.00285339,-40.67363358
1386,1.103519797,-3.757813692,-7.770476818,169.5368042,20.30740166,-38.69605637
1387,-0.010587463,-2.700976372,-9.674426079,194.6128082,2.535643578,-46.02550507
1388,-0.604685307,-1.541968465,-11.49515629,219.4931793,-17.02573586,-55.72734833
1389,-0.073292248,-1.590487957,-12.38348103,226.9082489,-20.71242714,-53.74498367
1390,0.980087459,-2.232018232,-10.4967432,209.4364319,-20.08138847,-43.20445633
1391,1.702568769,-1.88610065,-10.1841507,166.4270935,-27.91796303,-37.63661194
1392,2.540141821,-1.745257854,-11.13995647,131.1399536,-46.89421844,-37.03534698
1393,2.828417778,-1.398506761,-11.84266853,118.5757904,-71.0149765,-36.41787338
1394,1.757060766,-1.495122671,-11.71821976,103.0169678,-83.47628784,-30.10991859
1395,0.565025032,-3.193372726,-10.5690937,99.35315704,-71.03189087,-21.14963531
1396,-0.653063893,-4.700960159,-9.607738495,104.1827927,-55.12246704,-16.64056015
1397,-0.58336848,-5.936465263,-8.84519577,96.72335815,-34.57923508,-12.08773422
1398,0.594828129,-5.756932259,-8.198645592,89.99167633,-20.09218788,-8.105826378
1399,0.977490425,-3.962842226,-7.797283173,75.30479431,-6.305454254,-0.846023619
1400,0.124883376,-3.388409376,-7.590311527,55.2936821,5.909837246,10.53381348
1401,-0.500532746,-3.655808926,-8.317058563,21.98852921,-4.706145763,11.82000637
1402,-0.985944748,-4.494701862,-8.235051155,-6.565941334,-7.004148483,7.531905651
1403,-0.086359225,-5.970846176,-7.972304821,-19.28155327,2.517833948,6.686729431
1404,0.930406511,-5.113851547,-7.451909542,-19.8031292,1.398353577,12.36320877
1405,1.076143026,-3.440164089,-7.649598598,-37.05171967,1.630156159,20.38910484
1406,-0.039934661,-2.460557461,-8.254973412,-50.01061249,3.365365744,23.30214691
1407,-0.587545097,-3.264141321,-8.912132263,-65.18702698,10.03872681,24.11286736
1408,-0.351784438,-4.632890701,-9.486091614,-68.20396423,13.01117802,24.38275528
1409,-0.083090112,-5.1674366,-9.850928307,-65.86526489,7.665817738,20.07838821
1410,0.550311267,-5.165226936,-10.23269081,-59.17746353,-7.322125912,20.37753105
1411,0.280588478,-4.635066509,-10.63020325,-53.68778229,-20.92739487,20.87362671
1412,-0.613148987,-3.580738783,-10.61539745,-42.71518326,-31.69978905,23.11297226
1413,-1.393628001,-3.448884249,-10.45880795,-39.90813065,-29.34306335,21.42406464
1414,-1.755893826,-4.198559284,-10.31922913,-42.12530136,-24.41969299,16.97930336
1415,-1.76263392,-4.352966785,-10.32425022,-48.7048912,-11.12632751,9.37534523
1416,-1.969907165,-3.387386322,-10.36379814,-51.94085693,5.546508312,0.227506965
1417,-1.951446891,-2.413737059,-9.594388962,-54.49245453,14.91642857,-7.820727825
1418,-1.883514643,-2.021105528,-9.115945816,-66.51077271,17.39098358,-8.091464043
1419,-1.839083552,-2.191837072,-9.124985695,-78.19750214,13.08018303,-5.149169445
1420,-1.912853241,-2.142627478,-9.697051048,-77.87968445,10.77899361,-3.768638372
1421,-1.555297494,-2.222872257,-10.16326141,-75.14719391,16.70252991,-1.766435862
1422,-1.208373904,-1.911354423,-10.16915512,-73.78075409,24.40214729,2.126308918
1423,-1.237225533,-1.812376499,-10.47401047,-74.47899628,25.67412567,9.386352539
1424,-1.150993943,-1.658743024,-10.66274452,-76.03858948,22.6134243,10.94849777
1425,-0.668207705,-1.895211816,-10.00230503,-77.04813385,23.38597298,7.268411636
1426,-0.379668057,-1.806163073,-9.133069038,-72.44754791,26.28415108,5.456477642
1427,-0.462697178,-1.916668773,-8.591789246,-59.88155365,19.28884697,1.696865082
1428,-0.609728992,-1.954175711,-8.417793274,-37.59234619,0.324693829,-6.47884798
1429,-1.029858232,-1.606340766,-8.657948494,-14.0266571,-19.20536613,-12.91379642
1430,-1.028171659,-0.837852895,-9.275898933,3.107946873,-29.65010071,-15.71174431
1431,-0.853806913,-0.598363698,-9.630991936,7.235708714,-32.19261551,-12.97987461
1432,-0.361525327,-1.108610272,-10.11302757,3.508988857,-27.867939,-11.02975368
1433,0.23104161,-2.262487411,-10.32909584,4.993492126,-27.16542625,-7.435894012
1434,0.477769822,-3.472099543,-10.24560261,14.1964798,-28.2982769,-4.08823061
1435,-0.308329791,-3.449431419,-9.493016243,30.8379631,-27.53352165,-8.495177269
1436,-0.489302427,-2.018226385,-8.716444016,43.35672379,-32.93070602,-12.96676922
1437,-0.752703547,-0.354579508,-8.615204811,39.10126114,-43.07875443,-15.8391819
1438,-1.336382031,0.610303521,-8.904698372,26.52676964,-54.91822052,-13.58231068
1439,-1.503373027,0.083222881,-9.860564232,18.38214684,-63.0479393,-9.18337822
1440,-1.415399194,-1.036997914,-10.6860857,22.47906685,-61.16009521,-0.306710303
1441,-2.911866426,-0.368876904,-10.50938511,22.50961304,-46.21738052,7.062819004
1442,-2.552935839,0.838039935,-9.659683228,1.791410327,-28.88716888,15.22881699
1443,-2.408765078,0.418173939,-9.122350693,-26.45965576,-15.62937164,24.90305519
1444,-1.854311705,-0.097882487,-9.914301872,-54.54761887,-5.467364788,36.7020607
1445,-1.656891346,0.294440359,-9.747625351,-86.70741272,5.111544132,44.6572113
1446,-2.088181257,-0.281032741,-9.763892174,-96.02033997,6.996263981,51.91436386
1447,-2.183052063,-1.04108119,-8.678598404,-119.4295044,17.79461288,54.21587753
1448,-2.059036732,0.079877354,-9.852514267,-138.8834534,16.378088,55.22832108
1449,-1.893483043,1.746473074,-10.62099838,-131.7826996,11.04592037,52.72412109
1450,-2.077609539,2.70243144,-10.76809883,-130.7349548,6.119304657,58.24073029
1451,-2.834923744,3.136601448,-11.41006851,-136.5663757,5.351582527,61.58258438
1452,-1.810648561,2.82335639,-12.03546333,-137.4421692,5.325939178,63.6483078
1453,-1.208393216,2.162241459,-12.27936935,-132.6935577,4.846217155,64.16630554
1454,-1.090163589,1.889687419,-12.03053761,-128.1463165,2.950026751,63.10002136
1455,-1.648313522,1.40280652,-11.96381664,-128.3862305,7.732346058,56.77721024
1456,-2.097378731,0.873058498,-11.75007725,-129.98703,13.52604866,46.26182556
1457,-2.112458706,0.949133694,-11.1238718,-129.6933899,20.59039879,33.70100784
1458,-1.552494407,1.786109209,-9.888239861,-119.5736084,21.47551537,24.47926712
1459,-1.390304327,3.019499063,-8.695728302,-102.692421,15.82239151,17.83316994
1460,-1.671459675,3.840003967,-8.394647598,-90.71679688,7.568124771,13.40024567
1461,-1.741719007,4.032785416,-8.516121864,-76.13076782,4.306827068,11.15379524
1462,-1.486971378,3.609965801,-8.944108963,-61.96123505,-2.708483934,6.639299393
1463,-0.888031721,3.459191322,-7.917903423,-51.34510422,3.646002054,3.235593319
1464,-0.854046702,4.881711483,-6.552929878,-41.04627609,15.68719482,0.263338745
1465,0.301922262,5.019299984,-6.741316795,-21.54426575,7.723744392,-10.33538151
1466,0.352914423,3.094384432,-7.948858261,8.930655479,-7.133491039,-22.22831726
1467,0.076867029,1.562402248,-8.512893677,42.76170731,-12.08240032,-27.37281799
1468,-0.858398139,2.541561127,-8.17755127,72.17792511,-6.071683884,-22.90639305
1469,-1.139554977,4.344914436,-8.09031105,86.66415405,-6.463591099,-20.59192848
1470,0.037460137,4.928033352,-9.704417229,75.51831818,4.27311039,-20.80924988
1471,0.490309089,3.875269413,-10.61489487,84.43675232,15.30194283,-19.49126434
1472,-0.415951073,3.35462141,-11.02959347,97.01024628,18.44953728,-20.03660202
1473,-1.262645602,2.599867344,-10.67398071,113.9408951,15.2914753,-23.48164177
1474,-1.611114979,2.506408453,-10.47424793,123.4449081,13.34046936,-28.48985672
1475,-1.474545121,2.985612869,-10.15103245,112.2450638,14.69178104,-29.30052757
1476,-1.439034343,2.940033913,-9.577375412,92.83157349,15.77302647,-22.32447433
1477,-1.410236001,2.865588427,-8.941518784,76.1205368,14.16804218,-15.62727451
1478,-1.091065049,2.657797098,-8.60098362,77.39717865,11.6533432,-12.52458572
1479,-1.145300627,1.934502721,-8.854831696,79.77193451,3.677156925,-3.580178499
1480,-1.181527257,1.738663435,-9.397247314,71.23778534,-6.311115265,0.758200884
1481,-1.426015735,1.142727494,-10.31463528,64.93021393,-10.54697609,1.293320179
1482,-1.537114859,1.054334521,-11.10243511,59.84727859,-8.242739677,0.921723127
1483,-1.744928837,1.117908239,-11.46719646,56.92816544,-8.630371094,1.239605308
1484,-1.891601086,1.410807133,-11.44249249,52.01686859,-7.345544338,4.665142536
1485,-1.230065703,1.202420354,-11.22319508,43.95376968,3.026686668,9.083455086
1486,-0.822292507,0.554791152,-10.61201382,40.00997925,21.1790638,13.5220108
1487,-1.102766633,0.475205898,-10.16433525,41.01615906,29.60552025,20.99885941
1488,-1.400846243,0.378733695,-9.529294968,31.48017502,27.83081055,24.42038727
1489,-1.144312024,-0.098691106,-8.923707962,20.2638855,21.65390396,23.57175446
1490,-0.578483701,0.021064419,-8.831521988,13.16625786,13.36301613,20.8281765
1491,-0.696452856,0.299591869,-9.277677536,7.514660358,6.562085152,17.64172935
1492,-0.742048562,0.361324847,-9.202521324,4.658327579,9.361004829,13.87318516
1493,-0.329080731,-0.41366607,-9.289010048,7.895050049,15.51290512,12.00720119
1494,-0.489445537,0.194566384,-9.074293137,3.84594512,18.22254181,10.82496929
1495,-0.777723968,1.220227838,-9.005148888,-2.553532124,16.91246033,10.46413326
1496,-0.897683918,1.640351772,-9.004765511,-17.64047623,16.48570633,10.82622051
1497,-0.881066442,1.030478477,-9.509939194,-33.05400848,12.40559769,13.60641766
1498,-1.222305298,0.328829974,-9.827837944,-40.17460251,5.326747894,17.13731956
1499,-1.096951962,0.328040451,-9.463295937,-42.44889832,-15.71453571,15.58084297
1500,-0.181916356,1.268383384,-9.752580643,-48.92585373,-31.97047043,9.224552155
1501,0.464719504,2.136299849,-10.32685566,-66.03244781,-32.32674789,-1.222357512
1502,0.13272126,2.116458654,-11.23589039,-94.88056946,-15.04876518,-4.553107262
1503,-0.739066899,-0.0237066,-11.56299973,-109.7216187,0.219855979,-5.781871319
1504,-2.101349592,-1.605533957,-10.98614597,-86.46834564,2.846747398,2.749864817
1505,-2.569410324,-1.635310173,-10.29396057,-42.44639206,-5.48441267,6.305875301
1506,-2.4137609,-0.725389242,-9.565727234,0.007811881,-15.33699322,3.388844967
1507,-1.745309711,0.445608169,-9.320648193,26.55883408,-20.22286224,-2.595146418
1508,-1.152825594,1.280724525,-8.975885391,40.71140289,-10.59554958,-9.21976757
1509,-1.047774553,0.934085071,-8.925158501,36.10506439,10.0852108,-12.81353474
1510,-1.634301424,0.611291528,-9.236952782,38.3919754,20.45611954,-24.47159386
1511,-1.02144146,0.282581359,-9.482570648,58.87931061,25.43935966,-37.08218765
1512,-0.53212893,0.097319417,-9.999544144,85.20650482,33.4079361,-48.24723053
1513,-0.403368354,0.218074471,-10.08379936,114.8776474,32.75904083,-60.58923721
1514,-0.020881783,-0.392097712,-8.360336304,147.4850769,42.09249115,-54.33470917
1515,0.162126705,-0.963693023,-8.625377655,172.2119598,55.61113358,-41.10569
1516,-1.206160188,-0.437730223,-9.870093346,195.8889465,64.55600739,-42.65555191
1517,-1.46417582,-1.257430673,-11.70818901,203.9870911,68.56258392,-52.73722839
1518,-0.071117826,-2.479629517,-12.14649773,194.3946686,63.52674866,-56.76722336
1519,1.503592968,-4.698019981,-11.75111485,168.3934326,42.87360001,-52.66391373
1520,2.167153835,-3.649477482,-12.49413967,165.536911,14.28399849,-48.90764236
1521,1.314617872,-2.366575956,-12.18958759,167.3786469,3.873828888,-43.25123596
1522,0.515633523,-2.435245752,-11.25041962,170.55336,3.355448008,-40.59521484
1523,0.174626052,-2.611375093,-10.56342506,169.1720886,1.603600144,-33.74640274
1524,0.20973742,-3.136025429,-9.477263451,157.9738312,-4.9337883,-22.6088295
1525,0.337138474,-4.092598915,-9.02393055,134.2126312,-14.17560482,-11.54835224
1526,-0.236315534,-4.974195957,-8.34664917,108.1481552,-19.28408051,-7.572877407
1527,-0.314291537,-4.798579693,-7.100999355,83.42628479,-19.72290611,-10.83269596
1528,0.353296787,-4.041383743,-6.966504574,51.45586777,-23.3547821,-9.07175827
1529,0.430600852,-3.572211981,-7.938225269,21.59710503,-32.13988495,-5.904136181
1530,0.065112926,-3.827917337,-8.529477119,-2.23494482,-39.04746628,-8.028544426
1531,0.191763669,-4.736165047,-8.364518166,-13.10033512,-27.97678375,-9.184241295
1532,1.46105659,-4.186950684,-7.984626293,-11.11734486,-25.1613884,-2.932924747
1533,1.623526335,-2.913142681,-7.536973,-24.09946823,-23.02072334,10.80158806
1534,0.798694789,-2.653467417,-7.655091286,-51.52980804,-16.31990814,22.29469681
1535,0.16374743,-3.164528608,-8.006777763,-73.98899078,-9.845374107,26.42964745
1536,0.027567219,-4.53897047,-8.589372635,-90.81337738,-0.29830128,25.96060562
1537,0.139422715,-4.92438364,-9.171686172,-96.17373657,2.137095451,24.89640617
1538,0.204932496,-4.023555279,-9.683240891,-96.07610321,-3.453895569,23.18633652
1539,0.178692788,-3.321798563,-10.23107815,-93.29369354,-3.750929594,23.27074242
1540,0.000173332,-3.063407183,-10.43417263,-84.41871643,-7.184731483,23.85681915
1541,-0.200599134,-3.345076323,-10.15491295,-71.43081665,-11.73588371,24.50545502
1542,-0.525169075,-3.334517717,-9.979689598,-55.60274124,-19.34650421,23.94355583
1543,-0.683460653,-3.110747814,-10.09056568,-47.66197205,-18.47514534,21.64281273
1544,-0.606663883,-3.145188808,-10.1374712,-43.39485931,-18.47797966,18.22037125
1545,-0.649179876,-3.75251627,-10.2633009,-39.86826706,-22.07239151,16.14275551
1546,-1.059666395,-4.495384693,-10.42673969,-39.72618103,-17.01455307,11.48475075
1547,-1.523503065,-4.227184296,-10.20291805,-39.23159409,-3.381157637,-1.092816591
1548,-1.340344191,-2.756067276,-10.4640646,-43.0165596,10.36948109,-12.66624641
1549,-1.315427899,-2.032516479,-10.77109337,-44.66173172,15.17704105,-17.26397705
1550,-1.062047243,-1.12291646,-10.38028145,-41.39318466,22.64742279,-17.93351173
1551,-1.143505692,-0.867223024,-9.612347603,-41.23841095,29.02046585,-15.06035423
1552,-1.290134549,-1.319616556,-9.628400803,-38.30963516,22.49053383,-9.719508171
1553,-1.149931073,-1.335794687,-10.50973129,-36.30592346,13.68408203,-7.437001228
1554,-0.866484404,-0.974296749,-11.053936,-26.31900978,14.77618027,-6.638864517
1555,-0.864089072,-2.881367683,-9.863472939,-1.232249141,25.55813026,-7.296851635
1556,-0.34032324,-5.318318844,-9.255784035,-0.519241571,28.63075066,-8.546786308
1557,0.216562405,-5.126185417,-9.083672523,-0.073156342,11.68531799,-11.60447788
1558,0.211846158,-3.927090645,-9.575861931,10.51021099,-12.28158092,-10.23438072
1559,-0.444135964,-2.590815306,-9.870035172,21.19508171,-31.47591972,-14.08808422
1560,-0.671601415,-0.408104539,-9.986367226,23.27341843,-42.93426514,-18.35234451
1561,-0.770771801,0.797459662,-10.06604767,14.63809776,-44.29697037,-19.88304138
1562,0.718074501,0.87186259,-9.887661934,6.099581242,-50.96973419,-9.341622353
1563,0.315684795,0.458861202,-9.445690155,-3.038400888,-47.67546463,0.57983768
1564,-0.482155025,-1.016393065,-9.318710327,-13.95398903,-40.13939667,11.44748116
1565,-1.141859293,-2.892423153,-8.833157539,-18.89754486,-35.50445557,17.26278305
1566,-1.4224931,-4.04661417,-8.495725632,-16.05131721,-37.32624054,11.18736362
1567,-1.375053763,-4.183506012,-8.734326363,-5.070089817,-44.74676132,5.956827641
1568,-1.324352503,-3.283328295,-9.257509232,12.37914371,-49.97796631,3.797310829
1569,-1.670022249,-1.902650356,-10.44156265,25.85646057,-45.18628311,4.726075172
1570,-1.750339746,-0.358169526,-10.3440876,23.22965813,-30.8037262,8.9830513
1571,-2.141541481,0.496061236,-9.468639374,2.144220829,-13.0314312,13.13368416
1572,-2.006559134,1.324821472,-9.741621971,-20.83373451,-3.77541995,20.40508652
1573,-1.699069023,1.246524572,-10.39913559,-45.46563339,-3.148097515,31.8086319
1574,-1.883293509,1.228166938,-9.756459236,-84.43075562,8.321699142,41.66279221
1575,-2.251743793,0.552558243,-9.757025719,-117.4610443,26.95862961,51.74557877
1576,-1.747423291,0.136370718,-9.98836422,-126.5815735,29.14096832,57.01432037
1577,-1.244056463,0.537725329,-9.716038704,-124.3343582,35.30591583,53.7151947
1578,-1.514550924,0.883646727,-10.46614361,-125.5565262,45.00649261,50.19481659
1579,-1.691030622,0.981996953,-10.61953163,-124.1464462,52.4396286,47.80438995
1580,-1.475468278,1.95646441,-10.33248711,-129.6024933,50.90353775,45.98701096
1581,-1.218395352,1.840482473,-10.90696049,-130.9230652,35.81805038,43.67668915
1582,-0.861980855,1.584954977,-11.15135574,-128.7978821,22.21117592,41.73231125
1583,-0.987419844,1.233656764,-11.54002571,-125.8216858,15.1208849,40.13481522
1584,-1.391898394,1.976956606,-11.50690556,-124.9609222,8.416534424,38.67975616
1585,-1.267268419,2.9147439,-10.96704769,-127.0764236,4.512965679,35.35065079
1586,-0.584953249,3.439466953,-10.15275097,-121.27005,0.742117167,26.60334969
1587,-0.229347557,3.322272778,-9.769447327,-114.726387,-4.824297428,16.61737251
1588,-0.698849082,3.61070323,-9.379562378,-107.6369934,-2.425795555,9.940340996
1589,-1.129067063,4.256632328,-8.512079239,-103.9708939,1.165204644,7.290947914
1590,-1.117322803,4.97595787,-8.196707726,-96.99446106,-0.68258214,8.873304367
1591,-1.49268949,4.21137476,-8.611578941,-93.07566833,-4.628058434,15.06742287
1592,-1.150234938,3.222834587,-9.555801392,-82.43894196,-6.095635414,16.39752007
1593,-0.188943431,3.587496758,-9.507052422,-60.281353,-4.663999557,10.47037983
1594,0.482106507,3.929848433,-8.762180328,-36.37325287,-4.885369778,-0.335188508
1595,0.950747669,3.203410864,-8.2877388,-12.93998814,-3.21884656,-7.495363235
1596,0.490437329,2.593858004,-7.348334789,4.627076626,1.477917433,-8.877205849
1597,-0.20661068,2.967553139,-7.544211388,26.89432526,1.085917711,-11.25916576
1598,-0.229901344,3.465043068,-8.572089195,53.07761765,1.567155838,-17.15765572
1599,-0.531141222,3.788322926,-8.953350067,73.54447174,0.660731554,-19.81302643
1600,0.042240739,3.868559837,-9.440677643,81.03153992,-3.703974009,-16.28039551
1601,0.344636798,3.798939228,-9.891507149,77.71905518,-4.966275215,-7.487555027
1602,0.14473328,3.507004261,-10.29431438,77.54335785,-4.370176792,-4.562877655
1603,-0.182987407,3.582190514,-9.493467331,76.95023346,-9.755351067,-8.676610947
1604,-0.155082971,3.389597416,-9.573596954,72.69551086,-15.56569195,-10.74459457
1605,-0.328506351,3.237621546,-9.833229065,66.72915649,-14.11948204,-5.356389046
1606,-0.631448925,2.846834421,-9.774225235,57.67660522,-9.046456337,2.409415722
1607,-0.990013421,2.49477005,-9.685902596,53.61338425,-1.889769077,6.968505383
1608,-1.261687756,2.573055029,-9.978602409,54.17214966,0.899898887,6.463368416
1609,-1.1945014,2.071476698,-10.13120937,59.28537369,1.570936084,5.17171669
1610,-1.613809586,2.036841631,-9.607350349,65.36823273,5.12793541,12.55301952
1611,-1.439346671,2.256623745,-9.212538719,62.42889404,4.200763702,18.36843491
1612,-0.993614078,2.468170404,-9.276348114,58.21874237,3.517207861,18.36123085
1613,-0.922653675,2.543958664,-9.578325272,50.67339325,-2.156861544,19.25100136
1614,-0.87454778,1.91680479,-10.03087807,38.43671417,-4.476188183,19.71668434
1615,-1.02938509,1.043452263,-9.811635971,35.78244781,0.538817406,17.77136803
1616,-0.662728429,0.740586936,-9.663258553,40.92112732,9.570549011,17.08024597
1617,-0.634976566,0.600532353,-9.17866993,45.34387207,11.42584991,17.99204445
1618,-0.885535359,0.558090627,-9.266054153,42.36289597,8.312614441,18.10378456
1619,-1.142466664,0.903593898,-9.72516346,38.42757034,2.195943594,15.0981245
1620,-0.895889759,1.152667403,-9.624883652,33.06214523,-2.671844482,9.346995354
1621,-0.540397942,1.102936625,-9.738306999,30.02045059,-5.084438801,4.136016369
1622,-0.981504858,0.921605051,-10.0889225,28.45271683,-10.57151699,2.171336651
1623,-1.187737703,1.10006547,-9.872262001,24.92551041,-15.07818604,6.491968632
1624,-1.177563429,1.137348413,-9.478980064,18.36654663,-11.50448608,11.28177643
1625,-1.053797722,1.313483,-9.439024925,10.8347187,-5.98895216,9.566095352
1626,-1.024598598,1.481531143,-9.558152199,-3.339327097,-5.34809351,7.006996155
1627,-0.781453967,1.388114691,-10.42847443,-17.47433472,-5.217909813,7.475461006
1628,-0.525856495,1.048969626,-10.94276333,-29.49313354,-8.862902641,4.163512707
1629,-0.083439142,0.465977222,-11.06830692,-34.02812576,-12.33557415,2.289516687
1630,-0.464801788,0.303900182,-10.73246193,-32.61290741,-14.71679688,1.401866198
1631,-0.731069565,1.291262984,-10.28887939,-28.73961258,-13.44554234,-1.553857446
1632,-1.133018613,2.605088472,-9.943624496,-30.41054344,-5.743264198,-6.412154675
1633,-1.31441009,2.397479057,-9.599466324,-32.295578,4.737179756,-13.64785862
1634,-0.987543166,1.215608597,-9.405779839,-30.57925224,12.54282284,-20.06706047
1635,-1.274622679,0.588404536,-9.255004883,-14.06499863,15.93883705,-23.12612343
1636,-1.754576325,1.133352518,-9.106289864,-0.083529651,17.18182945,-22.12440872
1637,-1.638427019,1.416250229,-9.006332397,5.266782761,22.40707588,-20.39062691
1638,-1.818225503,0.617760777,-9.361492157,3.285004377,22.66575432,-17.66441727
1639,-1.390628219,-0.052792288,-9.720126152,1.84054625,21.42337608,-17.18016815
1640,-1.60046649,-0.565213442,-9.506137848,6.288323879,26.29694557,-17.45462608
1641,-1.383713126,-0.881801367,-9.134829521,11.41885948,27.7979641,-20.40502167
1642,-0.913455784,-0.529797912,-9.245703697,27.17154503,19.07011604,-29.02925301
1643,-1.02835989,-0.074810825,-9.470676422,55.77490234,17.26904869,-36.63964462
1644,-0.164746761,-0.438352257,-9.624026299,84.2441864,22.22923851,-39.83710861
1645,-0.128922582,-0.450299531,-9.47407341,111.2996216,29.15959167,-42.51845551
1646,-0.981427968,0.091328904,-9.620986938,140.3191376,39.75642014,-44.13140869
1647,-1.818590045,0.369374603,-9.967717171,165.2384033,46.07411575,-41.88827133
1648,-0.484846681,0.203490525,-10.99278259,158.6791077,30.9554863,-42.00712967
1649,0.363743097,-1.286454201,-11.34530163,149.7384338,14.83515739,-33.7278862
1650,0.964062452,-2.444654226,-11.67507744,142.4179077,3.151100159,-34.68893814
1651,0.605558157,-2.078452349,-12.32065773,137.6672668,-8.214978218,-38.90509415
1652,0.261024833,-1.855994105,-12.68885994,132.7277679,-7.876916409,-37.90023804
1653,0.641829908,-2.046088934,-11.8867178,127.2840881,-1.246974707,-39.57016373
1654,0.530143082,-2.465951681,-10.81811237,128.9590759,1.197085857,-38.67503738
1655,-0.31368643,-3.108518124,-10.03059864,128.9375916,-2.397491932,-33.07495499
1656,-0.597131431,-3.707985163,-9.291775703,126.9671402,-8.082055092,-30.71080589
1657,-0.738185942,-4.596867085,-8.684662819,120.7690125,-20.17325592,-33.67234421
1658,-0.681709409,-5.188687801,-8.45838356,110.6694489,-27.45285606,-38.47097015
1659,0.200959355,-5.112126827,-8.816937447,93.62230682,-29.80095291,-41.03407288
1660,-0.046593159,-4.385622501,-8.54838562,76.99297333,-29.48388481,-37.88567352
1661,-0.135513678,-3.665834904,-8.646054268,59.23314285,-32.98823929,-33.54570007
1662,-0.043923333,-3.689568996,-8.99060154,43.56821823,-39.71699905,-22.54191589
1663,0.195035562,-4.641888618,-8.303636551,33.96451569,-40.76910782,-14.4843092
1664,0.284957409,-5.124120712,-8.550266266,28.27986336,-40.32252121,-11.82148838
1665,0.635936916,-4.491580009,-8.910857201,25.00465775,-41.20050049,-5.590703487
1666,0.381629407,-3.484241009,-8.545627594,16.62152863,-38.66883087,2.128518343
1667,-0.034047268,-2.869920492,-7.968058586,-0.950830877,-34.84806442,9.859627724
1668,-0.248413593,-3.339775085,-8.354875565,-28.61907196,-30.77023506,16.50875664
1669,-0.79998976,-4.215558529,-7.803790569,-42.65919876,-24.65444374,20.04997253
1670,-0.920658708,-5.012870789,-7.662481785,-52.8658905,-21.78580093,24.98729706
1671,-1.054544449,-4.595786095,-8.296757698,-66.58061981,-25.7390995,31.18478584
1672,-0.995082378,-3.547108889,-9.733874321,-77.43913269,-28.58934593,32.41056442
1673,-1.392678976,-3.122237444,-10.53186703,-80.22273254,-16.91436577,28.87711525
1674,-1.532152176,-3.341344595,-10.10634327,-72.40838623,-7.126634121,26.4033699
1675,-1.060012341,-3.678962708,-9.990336418,-65.30230713,-2.359437943,25.73399734
1676,-1.030564904,-4.005074024,-10.12122726,-55.2215271,0.153550133,25.78826714
1677,-1.452285528,-4.074645519,-9.980521202,-36.68057251,-0.769327164,21.76339149
1678,-1.474760532,-3.950367928,-9.983572006,-21.67310905,-3.758053303,18.0574379
1679,-1.369380951,-3.310274839,-9.853630066,-6.982088089,-9.913568497,15.07288933
1680,-1.707940102,-2.414326191,-9.752948761,-1.7255615,-14.25132656,12.12515545
1681,-1.979044318,-1.797245622,-9.605304718,-13.50606251,-7.099701881,11.02711391
1682,-1.936577201,-1.932264686,-9.709571838,-32.65914154,-11.20657253,8.036045074
1683,-2.005046368,-2.557666779,-10.00586796,-44.16121674,-15.52081966,1.807694316
1684,-1.761867404,-2.610636711,-10.09307957,-48.03099442,-16.38233185,-0.463702887
1685,-1.911210299,-2.315532923,-9.954903603,-51.92280579,-14.50125885,-1.65574348
1686,-1.776658416,-2.681912899,-9.777936935,-52.65660477,-8.61879158,3.044291735
1687,-1.970760345,-3.026053905,-9.492904663,-50.02809143,-9.149586678,4.950621605
1688,-2.245848179,-3.056762934,-9.200518608,-47.77958679,-12.02999878,5.10205555
1689,-2.506597757,-2.847740889,-8.85645771,-46.39096069,-14.1825676,2.747471571
1690,-2.291244268,-2.756065369,-8.723317146,-45.64341354,-14.10202408,1.252727151
1691,-1.989972472,-2.00351882,-8.799163818,-49.3025856,-10.06100845,-1.989247203
1692,-1.663838506,-1.055097342,-8.970326424,-50.63692093,-3.235547066,-2.335086107
1693,-1.314180255,-0.787774265,-8.95588398,-48.20850754,4.087347031,3.793682098
1694,-1.63377142,-1.228344917,-9.112927437,-43.59381104,8.393532753,6.828099728
1695,-1.866976857,-1.486973286,-9.178656578,-38.81719208,12.65174961,6.454144001
1696,-1.314494848,-1.95888114,-9.328109741,-30.66061783,13.22353268,8.219826698
1697,-2.080860376,-1.348752141,-9.313573837,-27.39542198,15.96753979,3.969995499
1698,-1.676546097,-1.04697752,-9.263895988,-32.70746613,16.23243332,5.234761238
1699,-1.854209661,-1.092503071,-9.03169632,-41.83353806,13.44375992,2.647538424
1700,-1.665699959,-1.319645286,-9.314462662,-43.36352921,6.786156178,3.187918901
1701,-2.044357538,-1.283805847,-9.543812752,-42.09162903,4.171669006,0.74237591
1702,-1.737482905,-0.392171443,-9.805653572,-41.62510681,1.673198342,1.47962904
1703,-1.908310771,0.480262011,-9.633770943,-50.06923676,-1.477347255,3.871342659
1704,-2.135135889,0.706148624,-9.601181984,-57.36314774,-5.370245934,6.762164593
1705,-2.031957388,0.888089895,-9.301465034,-63.76185989,-7.728023529,10.85861397
1706,-1.887500405,1.072660685,-8.923284531,-68.29631042,-5.854108334,15.82681084
1707,-1.710110784,1.121337652,-8.72671032,-73.93164063,-5.194858074,21.98521042
1708,-1.876995683,1.200003028,-9.124257088,-78.49160767,-4.250550747,28.04018974
1709,-2.110096931,1.345613241,-9.12871933,-79.21716309,-2.628923178,31.72963333
1710,-2.041982651,1.115949392,-8.892810822,-76.85438538,0.194610134,33.57958221
1711,-1.594109535,1.120704055,-9.153539658,-63.17518616,6.412793159,33.46231842
1712,-1.527382135,1.566026211,-9.24498558,-51.16527939,11.33117485,33.71016312
1713,-1.41176033,2.022711515,-9.5321455,-51.86298752,18.87978554,34.44842911
1714,-1.507281423,2.269597054,-9.79470253,-53.57698059,24.72386551,33.23797226
1715,-1.346476912,2.310445309,-9.75077343,-56.9960289,28.24882126,32.69604874
1716,-0.98367089,2.552963495,-9.403586388,-55.15123367,36.64523697,33.71002579
