PacketCounter,Acc_X,Acc_Y,Acc_Z,Gyr_X,Gyr_Y,Gyr_Z
599,10.26595116,-0.265037209,0.665957332,32.18687057,-103.3949051,11.48925304
600,11.05123234,-0.600590765,0.549578309,37.92216873,-107.3222733,3.998817921
601,11.73084354,-0.249223515,0.888829529,40.92132187,-108.5480652,-4.780235767
602,12.2270174,0.582546592,0.531838417,37.84383774,-109.6413956,-6.054745674
603,12.88452053,1.335355043,0.613254666,32.83897781,-106.466095,3.497445583
604,12.84550953,1.618170142,0.713500977,21.72393799,-106.7021255,12.70357132
605,12.71031094,0.300741225,0.404120862,7.717803955,-111.4836731,14.48983669
606,12.59103584,-0.723561049,0.177109689,1.98037982,-112.8317642,7.447195053
607,12.00234509,-1.053248882,0.483219713,5.422790527,-115.6850891,0.55495733
608,11.41934204,-0.928617716,-0.093998335,19.15546989,-122.327774,-1.816243172
609,10.83737469,-0.349588215,-0.590707541,31.70203972,-130.1603546,-4.055963039
610,9.882225037,0.516245425,-1.134745002,38.2458992,-145.2878418,-3.430556059
611,10.05532932,0.929167211,-2.288114071,48.72970963,-154.3950043,5.445155621
612,11.40753078,1.794200182,-2.98118639,56.56963348,-166.9352722,18.02206993
613,13.95234585,1.825064778,-3.399623871,71.71095276,-164.5415192,56.85526657
614,13.26048851,-0.07283327,-3.223214626,66.82303619,-187.1302948,85.9001236
615,11.66561317,1.310882092,-4.697383404,96.65003204,-209.7416992,86.69776917
616,10.4600029,1.034751773,-4.614228249,107.1279755,-228.485672,104.763092
617,14.07429695,0.788492024,-5.19621563,39.45005035,-268.6841125,141.8024597
618,14.33287048,-0.579972744,-6.893714905,-12.08094501,-366.3406372,189.3210144
619,-15.92427635,0.668659568,-14.71687412,65.14411926,-333.6803284,192.3796234
620,20.62420082,-7.035630703,-7.332794666,51.67926025,143.9525604,115.1858978
621,15.66125107,-15.5197916,-5.216607094,0.900303781,-460.5480652,231.698349
622,-13.2822504,-11.27616501,-0.168057323,390.2055664,-392.6856995,23.43921852
623,5.623850346,-5.868612766,-8.084166527,-135.0935822,-621.0379639,55.72514343
624,-3.395633936,3.651756287,-24.15218163,-534.670105,-369.5908508,-76.67658234
625,10.71392059,5.304101944,-15.66247177,-306.6817322,81.11962891,-122.3658829
626,0.504236877,-1.514872074,-0.878902078,-88.20420837,87.33377075,-65.3835907
627,-0.468746364,-2.163310528,-1.640548468,-71.36658478,20.25963783,-24.62496185
628,0.492372483,0.289044529,-4.507362843,2.366443872,-54.99636078,-21.3474865
629,1.593495369,-2.449787617,-3.442007065,13.14548874,-14.03751183,-10.47124481
630,-1.156684756,-2.152652502,-3.115784883,-14.54534245,-31.35763741,-12.51605225
631,-4.228127956,-2.001721144,-5.272056103,-0.117012866,-54.71395493,-2.131767511
632,-2.751039982,-3.655876398,-5.404884815,18.08240891,7.954836369,-6.877827644
633,-2.291568518,-0.653424859,-3.86567688,-16.85110855,-16.39576149,-22.4219799
634,-3.651442766,-0.102699921,-4.881839275,-26.52552986,23.28637123,-36.87961197
635,-2.891364813,-0.81689924,-7.431063175,-39.47024155,60.15287399,-47.43735886
636,0.133666068,0.874777615,-8.232142448,-72.95414734,140.7830353,-54.64725876
637,-2.598377705,0.994542301,-7.677731037,-43.284832,192.7750702,-24.30733299
638,-2.017812967,-1.272219777,-4.118075848,-76.39936829,295.5686951,-48.58821106
639,-4.967223167,-1.888742685,0.464521706,-89.72306824,89.69544983,-39.6309967
640,-8.434661865,-0.912316084,-10.12665558,-3.296744823,-101.8208008,-7.782372475
641,-4.336915016,-0.651661456,-11.2498951,19.92255974,-92.15498352,-3.765171766
642,-1.021970391,-0.107195243,-9.875242233,-38.29092026,-104.1706696,-9.42961216
643,-0.957329631,0.135793388,-9.197646141,-33.28783798,-109.781395,-15.34685421
644,-2.27420783,-1.682263374,-9.021258354,-44.15789795,-103.3613663,-15.27615738
645,-2.880154133,-1.758167386,-8.82630825,-23.52753639,-101.5711823,-12.96254063
646,-3.077452183,-2.119884253,-9.245681763,-2.578649044,-99.2895813,-10.04020977
647,-3.260050535,-1.660189152,-9.043976784,23.39001465,-99.88070679,-9.253664017
648,-2.496630907,-1.159890294,-9.510736465,33.38594437,-102.8412476,-13.69841099
649,-2.896178246,-1.001050234,-9.321977615,47.00957108,-98.75257874,-17.37657928
650,-3.13070941,-0.364658833,-9.762369156,46.38479996,-88.36751556,-14.62621975
651,-3.378116846,-0.345576972,-9.400673866,38.84318542,-80.43595886,-10.62988091
652,-3.594073057,-0.188534915,-9.828652382,36.31303406,-69.39357758,-7.872093678
653,-3.827570438,-0.999342203,-7.854552746,27.64476776,-72.41259766,-8.640001297
654,-3.866825104,-1.173529625,-6.200511456,4.563698769,-70.88642883,-16.27822876
655,-4.512617588,-1.309054971,-5.515837193,5.876933575,-63.07193375,-21.67763901
656,-4.517489433,-1.312384963,-4.835178852,20.37160492,-46.60468292,-19.79991531
657,-3.495638609,-0.687047482,-4.729614258,36.07683945,-21.15694046,-8.254257202
658,-2.628288031,0.800958514,-4.2137537,41.94403839,9.028676033,-1.369718313
659,-4.111636162,0.988132536,-6.150668621,36.62574768,41.51200867,-1.294511676
660,-4.424996853,-0.659575403,-8.042741776,24.15660667,74.30899048,-11.20530415
661,-2.190532684,-2.391948462,-11.0840292,-18.43811226,109.4447556,-13.02022457
662,-0.836274505,-2.07191658,-11.27079773,-57.06272888,152.616272,-10.45898247
663,0.086589128,-0.726183772,-8.197657585,-49.71602249,193.4632721,-11.07402802
664,2.392636061,-0.434783638,-5.516512871,-52.48337555,217.9672699,-12.11754799
665,2.963569641,-0.622128427,-5.628623962,-78.00373077,167.7106781,-1.418512821
666,1.613813162,-0.549758554,-12.10722256,-93.47496796,116.1250763,1.329704165
667,-0.582126617,-0.26105839,-20.8128376,-113.4120255,94.3848877,-15.95856667
668,-1.242768884,2.242417812,-23.9167347,23.72270966,61.21009827,-12.703228
669,-0.974903107,0.839076042,-15.72838879,121.5691071,37.62853622,12.24534893
670,0.669243455,-0.576413333,-13.58742905,46.39523697,70.28662872,2.706734419
671,-1.550218582,-0.575449705,-11.89311409,0.644771934,86.65616608,-5.827222824
672,-1.96265161,-0.744045377,-12.41077328,-20.56801605,53.0025444,-14.24572659
673,-1.421111822,-0.633978903,-11.58573532,-28.04006386,25.64566803,-19.83362579
674,-0.906412065,-0.417187929,-11.50703049,-6.867508888,-16.774086,-16.53313446
675,-0.230748534,0.113372155,-9.985915184,15.1402359,-43.00004196,-10.54110146
676,-0.310024709,-0.332645774,-8.448783875,1.673743844,-44.32223511,-0.119829841
677,-1.29780674,-1.495544195,-9.124594688,-16.86174202,-50.61266708,15.58258343
678,-2.340803146,-1.807413936,-9.065102577,-7.520494938,-55.47529221,20.33228874
679,-1.14362824,-0.813210189,-8.74050045,10.25449371,-53.51433563,8.522006035
680,0.098496698,0.405527115,-8.510440826,9.781217575,-74.79127502,-0.221951291
681,-0.362870663,0.956344187,-8.353441238,-9.920863152,-91.46733856,-0.529148519
682,-0.707852483,0.601916909,-8.927410126,-33.58141327,-108.802948,5.607741356
683,-1.300879955,0.533373654,-9.748547554,-37.80538177,-114.9460449,12.73428059
684,-2.026295662,0.33771798,-10.64574909,-17.24354553,-112.4181519,11.12543297
685,-2.422328949,0.151726827,-11.02633572,17.58840752,-99.38022614,6.926211357
686,-2.812639952,-0.432044506,-8.109032631,30.60986519,-79.91918945,-2.025491714
687,-2.996005535,-1.274192572,-3.991477013,18.89365768,-79.33630371,-10.84269714
688,-2.613786936,-1.963541269,-2.792794704,48.48627472,-92.87834167,-7.213398933
689,-1.806748033,-1.943617344,-2.994630098,91.7855835,-88.24633789,-0.741107464
690,-1.863826156,-1.475924492,-3.521837711,105.8575058,-77.05974579,11.73962307
691,-2.809788465,-0.448402882,-4.740656376,51.57087708,-72.60284424,22.30270958
692,-3.476514578,0.577256501,-6.977210522,12.64646626,-49.26686859,15.70588207
693,-3.457686901,-0.601087987,-6.954805851,20.79941177,-15.88175583,2.43466568
694,-2.855950356,-0.946198404,-5.851084232,17.13992882,-0.60031116,4.664839745
695,-2.619322062,-0.532076538,-6.199753284,4.606842041,15.32723522,14.29099369
696,-1.96682632,-0.578164279,-7.9921422,-0.41457054,45.12508392,16.39288139
697,-0.991809607,-1.312712073,-9.874540329,-0.032106657,100.0677338,8.076322556
698,-0.116262048,-1.567960262,-11.58179855,9.851826668,154.1547394,-6.306083202
699,1.684702277,-1.997692227,-11.35252953,16.08738327,164.3686981,-18.12475967
700,4.527368546,-2.160166502,-11.81467819,-2.667492151,148.0074615,-24.81604958
701,6.314020634,-1.522605658,-12.27484894,-7.335478783,116.5118103,-27.78322792
702,5.199658394,-1.823397279,-12.89527988,-12.09941101,63.96811676,-23.00294495
703,2.335635185,-1.741856694,-14.84065247,-11.40095139,70.76597595,-12.34174824
704,-0.702527761,-0.187072426,-20.15137482,46.86016464,101.5276108,1.053298473
705,-4.195133209,0.188684732,-20.47907257,84.78907013,104.4939423,6.642508507
706,-5.129333019,-0.54813385,-13.7541008,34.07675171,108.1731415,3.263148308
707,-4.473424911,0.429816127,-10.75082684,-76.74015045,112.4841766,-10.21538734
708,-2.154889584,1.112684727,-11.9126215,-106.9127502,80.46274567,-10.00170326
709,1.198154926,-0.324691981,-12.17674923,-103.9511871,54.24293137,-18.09016228
710,2.888157368,-1.093196869,-12.95594311,-65.12810516,25.51420403,-21.41959763
711,0.974610388,-2.042633772,-11.95598984,-14.24698353,13.08031559,-4.231006622
712,-0.986554205,-2.457728386,-9.425424576,-14.72377968,15.96326351,3.890697241
713,-1.177865028,-1.186703205,-7.734256744,-31.2663765,21.2450428,3.029376507
714,-1.272727966,-0.051313125,-8.163672447,-45.49842072,1.134516478,7.029374599
715,-0.702710152,0.106324926,-9.295235634,-53.10547638,-17.7035408,16.28589249
716,-0.557015955,-0.758568227,-9.595048904,-51.01823044,-40.03271484,28.11239815
717,-0.018629789,-1.160933971,-9.381309509,-26.42672348,-55.44992065,27.71495247
718,0.953869402,-1.204813719,-8.919955254,-9.847642899,-74.45672607,11.45891285
719,1.05663383,-0.87747407,-8.855766296,-8.081921577,-87.23931885,-3.570904016
720,0.50339514,-0.660916686,-9.001898766,-10.71963978,-88.50151825,-7.934640408
721,-0.110865697,-0.165685534,-9.418625832,0.542561412,-85.77256012,4.461149693
722,-0.012300402,0.5156672,-10.24567032,20.63163567,-80.05107117,13.83743
723,0.234400809,0.626515329,-10.0121088,39.80714035,-82.16333008,7.288826942
724,-0.484179407,1.00188446,-8.857265472,36.29148865,-84.96453857,-3.747954845
725,-1.333502054,1.524913907,-6.426029682,16.66159058,-100.0814056,-6.999227047
726,-2.145894051,1.163097262,-4.637782574,-0.4908261,-114.7028122,-0.739703417
727,-2.814912558,0.035444111,-4.172916889,13.22490215,-114.8429642,3.430860996
728,-1.416665554,-1.217158437,-4.461894035,40.83108139,-88.5756073,2.139852762
729,-0.366747886,-1.384262085,-4.263034821,61.39774704,-60.91563034,-0.613645256
730,-1.599045277,0.12950553,-5.665681839,63.32732391,-39.11208344,-0.127182335
731,-2.637251854,1.810024977,-7.661925316,58.03472519,-8.879918098,7.479340553
732,-2.192837954,1.563392878,-6.844616413,30.82414246,12.67077255,15.70284367
733,-2.177949429,0.206635728,-7.046862125,-0.41207093,24.40423203,11.65333939
734,-1.618230462,-0.357769668,-7.813423157,0.052474461,48.93108749,2.064791441
735,-1.202225089,-0.775697887,-8.135643959,2.553149939,79.71720123,0.050490156
736,-0.700590849,-1.044152379,-8.986153603,-7.196886063,116.4690857,0.506329715
737,0.651973844,-1.099016786,-10.30020714,-6.724475384,157.5254211,-8.687515259
738,3.121361971,-0.131384254,-11.34982491,11.65146446,182.6791687,-16.10235977
739,5.902412415,0.201511294,-12.25906467,16.61094093,178.3098297,-7.898415565
740,7.955286026,-1.544548631,-12.66967297,-0.061860878,168.7620087,-1.327127099
741,8.018501282,-2.828501701,-13.24991131,-3.857793808,149.1387177,-8.219274521
742,6.014549255,-3.397722721,-14.03180885,1.649775386,116.9880524,-11.22831059
743,3.600560665,-3.55099535,-14.17733002,3.309344769,118.3717728,-11.81430435
744,0.691409707,-2.139678955,-12.75500774,-8.810521126,115.2439117,-13.65483093
745,-1.531430483,-0.183647096,-13.96345139,-23.92607307,164.4742279,-22.69357109
746,-1.946219444,1.934051752,-14.82291222,-58.82114029,189.842514,-18.49656487
747,-0.777057171,1.665969849,-13.97084999,-43.68922806,171.325058,-15.16516972
748,1.068692803,0.17505607,-9.758563042,-19.52699089,97.03655243,-6.088860989
749,1.304634452,-0.804326952,-7.328559875,20.69870186,43.50915909,-9.26205349
750,3.8218894,-1.656889558,-7.450978756,43.76041794,-3.702354431,8.737365723
751,3.837015867,-1.492641449,-8.446090698,57.49841309,-33.22321701,27.85113716
752,3.235298157,-0.480455637,-8.01854229,58.0925827,-26.80431366,19.04008102
753,2.60630703,0.171859205,-6.915369511,41.92609406,-27.02098083,3.700574398
754,1.92586863,1.137445211,-7.652884007,25.54923248,-38.96580124,-4.150609016
755,1.345103145,0.719651282,-7.906714439,-5.70701313,-29.25383759,-4.315547943
756,2.04122448,-0.303051531,-6.580904007,-27.12679672,-17.00058365,-6.550024509
757,2.996796131,-0.855974972,-6.168635845,-22.88451576,-32.69089127,-6.593029022
758,3.471990585,-1.642960668,-7.157423973,-14.32481098,-49.17510223,-6.213141441
759,3.645127058,-1.789426208,-8.704303741,3.106022835,-50.95819855,-2.729954481
760,3.074927568,-1.341717362,-9.203603745,28.96809578,-40.81096649,0.913465679
761,2.730279922,-1.253301144,-8.335120201,45.29936218,-25.47158432,0.213951305
762,2.152250767,-2.074092388,-8.169697762,66.14474487,-7.546579838,-4.482357025
763,1.785471916,-2.997928143,-7.303356647,73.56855011,15.94738674,-10.58004093
764,2.343943596,-3.357776403,-8.029241562,78.45630646,21.63872337,-3.550899744
765,2.634531498,-3.759051323,-8.716448784,105.1235275,17.05814552,15.17347336
766,2.429579258,-4.58198595,-7.53058672,116.348381,8.873957634,23.93509293
767,2.340616226,-4.649396896,-8.065009117,101.2664108,-8.073847771,16.98658752
768,2.423498869,-4.770659924,-7.953433514,70.48204041,6.617695808,2.366168737
769,2.774730921,-5.311889648,-6.35047102,66.30567169,18.32221413,-3.740950584
770,3.537525177,-6.082639217,-8.62798214,64.78897858,28.68798256,-3.755631685
771,3.9092834,-5.846245766,-11.0949192,110.1610641,50.94003296,6.698389053
772,3.636707544,-5.918953419,-9.749268532,153.7086334,52.09545135,24.24199867
773,3.610264063,-5.176794529,-9.741920471,187.7593384,46.87934494,25.07300568
774,4.107772827,-3.539986849,-9.43910408,200.7227478,35.65236664,7.530527115
775,4.518003941,-2.139476299,-9.15020752,186.8157806,12.36002064,-12.94577122
776,4.751730919,-1.867504478,-9.550816536,167.3765106,-6.292817593,-16.33832932
777,4.553972721,-3.376200676,-8.444391251,150.9123077,-14.50364208,1.428804874
778,4.065618038,-4.873933315,-7.326644421,125.4609833,-1.536395669,24.4742527
779,2.299196959,-5.481449604,-5.701127052,87.57807922,-2.556323051,42.71017075
780,0.79043889,-5.55077076,-4.110157967,28.75386047,-22.96704483,45.84953308
781,0.166017115,-5.035318851,-4.954842567,-26.96357918,-63.60609055,43.83727264
782,0.688300967,-4.61379528,-8.899767876,-84.21489716,-70.0298996,39.05059814
783,3.593455791,-1.500101089,-6.697498322,-142.0422211,-55.34054184,21.65921211
784,4.174211025,-0.292411566,-7.144412041,-195.6019592,-69.80195618,-4.816900253
785,3.033204317,-4.859687328,-7.426513195,-210.1522217,-64.46883392,6.877733707
786,3.25719285,-8.313873291,-7.542651653,-163.8379974,-52.95975113,30.91429329
787,3.018285275,-6.840095997,-8.059537888,-121.8171921,-20.74839592,27.19619942
788,2.323769331,-3.80239296,-8.558298111,-105.1893692,-9.824567795,7.576267242
789,3.349545002,-2.172789097,-7.803297997,-98.41452026,-17.20239258,-5.948234081
790,4.403889179,-0.618346214,-8.609885216,-97.97995758,-19.63175964,-2.69624114
791,4.245006561,0.631086826,-8.599956512,-122.2095718,-7.496632099,4.344342232
792,3.717758179,-0.264736146,-7.441569805,-142.8841095,0.623221219,7.161398411
793,2.905183792,-1.975927591,-6.462337971,-141.6399689,-0.41624862,6.157581329
794,1.84894681,-3.186908245,-8.098250389,-116.8384171,6.005685806,2.234264851
795,1.363709092,-2.95219183,-9.584162712,-66.15099335,4.945985794,-8.235404968
796,0.425814211,-2.693349361,-8.448762894,-38.70690918,-15.00940704,-12.40231419
797,-0.100592852,-2.700832844,-9.119203568,-18.73859024,-17.2801857,-7.085078239
798,0.840591908,-2.972664595,-9.428556442,-13.04404068,-21.92210007,-4.193692207
799,1.315200925,-2.102959871,-10.21120167,-10.8633337,-8.273503304,-14.93103313
800,1.476887465,-1.214341521,-9.32948494,-11.29351616,-3.289384365,-25.48136711
801,2.197832823,-0.309415638,-8.760178566,-14.63129139,-9.127386093,-26.56459618
802,2.507282019,-1.523417592,-7.82972002,-17.80474091,-5.622638702,-15.70628834
803,1.268749952,-3.397898674,-8.507536888,-18.82634354,1.102134943,-2.622474432
804,1.540167212,-2.241080999,-9.622608185,12.0625906,14.3690691,4.038685322
805,0.761867404,-1.471429706,-9.6827631,47.88862991,23.04432678,-13.8056221
806,1.245867968,0.058761179,-9.886603355,64.50213623,28.50219917,-29.18260574
807,3.658651352,-0.531932294,-10.13760281,60.32177353,30.6460247,-19.53269196
808,4.997713089,-0.765527725,-9.214723587,49.87542343,40.98612976,-2.306963682
809,5.025828362,0.252704412,-7.458199501,3.512492657,30.68987465,1.63750875
810,4.237286091,0.694933414,-8.423444748,-24.17380524,13.79449368,-0.559703052
811,2.586879969,1.323197246,-10.05319691,-37.70204544,9.200239182,-0.848079443
812,3.005531549,1.451510429,-9.93376255,-72.87233734,26.66864014,5.635387897
813,3.200875044,0.865357578,-8.849597931,-153.7582855,50.88564301,6.572494507
814,2.131733179,0.939979792,-9.06047821,-203.5061646,79.41108704,-0.586181223
815,0.493209153,1.2140311,-9.871888161,-197.9472961,70.71189117,-5.796263218
816,-0.258516639,3.202436686,-11.06837273,-190.6707764,27.92954826,-11.98297787
817,1.321327567,5.415664673,-12.27027607,-208.2775269,-18.70817566,-7.749729156
818,2.120507717,4.236843109,-10.43396759,-266.2376404,-32.40815735,-19.42302704
819,2.152457237,3.929993629,-7.660574913,-326.9916077,-5.016713619,-44.43537521
820,1.395387053,2.33700633,-7.692675591,-348.2574463,21.93444443,-53.46750641
821,2.10266614,1.239870191,-9.374375343,-306.0262146,11.91237259,-44.55380249
822,4.122664928,0.906087279,-8.65789032,-225.521698,-24.31211662,-36.28391266
823,6.354214668,2.628281355,-8.751541138,-171.4968109,-53.93636703,-40.90611649
824,6.59051609,3.315593958,-8.91271019,-154.0231934,-80.77818298,-38.22172546
825,4.966852188,2.85833168,-8.519597054,-157.1802979,-77.7869339,-35.95070267
826,3.92621541,2.694214821,-7.848688126,-136.6225739,-61.25296021,-38.15029144
827,1.137614369,1.952372193,-5.536747456,-105.4525604,-62.85237122,-50.41171646
828,-1.597623467,1.938014746,-3.913297176,-34.76660156,-76.46606445,-52.97507858
829,-2.817611933,2.157441616,-4.352117062,21.26775932,-63.10929489,-49.46347046
830,-1.817298532,4.252511978,-6.771305561,100.7248306,-97.26050568,-34.46398926
831,0.37819171,5.364542007,-10.01273727,178.8054504,-100.7912827,-3.127416134
832,1.159423709,4.106033325,-7.779930115,209.1868286,-82.83722687,9.864772797
833,0.389624417,0.834378779,-6.611818314,205.5028992,-67.06651306,0.160931885
834,0.590675533,0.340644449,-7.321697712,212.4372711,-0.397406071,-12.86388111
835,2.138471603,1.604176044,-8.377660751,225.7144012,36.50958252,-9.466510773
836,1.34992075,2.928668499,-10.13681698,256.6102905,24.72903252,-0.591663837
837,2.170780659,3.188714027,-11.11718559,279.1429138,12.1879158,13.68810844
838,4.928625107,3.125926971,-11.21761322,286.9030151,1.663706303,30.3631649
839,6.001856804,2.593420744,-10.1272316,264.4155884,-6.896720886,26.55592728
840,3.492703676,2.663904667,-8.659374237,214.7435303,-15.53034401,11.45634174
841,1.895786643,4.633387089,-9.383542061,161.8674011,-10.08472729,16.94568825
842,1.463809252,5.426231384,-11.3598814,107.3740005,-3.330509424,40.14723587
843,-1.068160057,3.587083578,-12.8647604,29.69281387,-5.792691231,44.91691589
844,-0.982643068,2.658022881,-12.56271458,-23.31040382,-2.097165823,30.73620987
845,0.188284934,1.582932711,-11.07792282,-25.60289001,22.41871643,28.85707474
846,0.988460243,-0.066569649,-10.35931969,-39.39639282,34.81999969,43.27247238
847,2.876620293,-0.12712577,-8.731874466,-67.49427795,44.96030426,36.72001648
848,3.796477795,-0.003206126,-5.593880177,-89.84373474,74.16336823,7.881772041
849,3.022574902,-0.934532642,-8.136494637,-79.62902069,97.46079254,0.124491073
850,2.328115225,-1.719346285,-11.76609993,-11.26353073,71.59794617,27.26342392
851,3.071148396,-1.752813697,-9.418411255,67.21498108,51.8127327,41.53311157
852,3.876177311,-3.553586006,-7.657495499,77.14794922,35.68883514,23.68964958
853,3.327980042,-4.368465424,-9.159193039,66.81945801,40.12674332,-7.035306931
854,1.954467058,-4.208961487,-12.38553047,67.78947449,46.79323196,-30.31527328
855,0.868573606,-3.419085741,-12.60840511,75.21059418,98.60137939,-41.95861435
856,0.29009074,-2.683086872,-8.417742729,90.03874207,132.3930359,-36.35709381
857,0.291841924,-2.98314476,-5.352106094,118.6925812,51.96524429,-17.07759285
858,1.869642735,-6.097288609,-8.912816048,148.2204742,-19.84332848,-7.006177425
859,2.078677177,-8.620449066,-10.7778368,181.7223511,-64.14842224,-17.48433304
860,1.710141063,-6.439275742,-10.43713951,206.310257,-39.41365814,-12.82865047
861,3.335692644,-0.035842329,-7.768498421,205.1111908,-1.846555352,21.35931969
862,2.803049803,0.402741969,-7.106259823,172.332962,13.47249699,44.20022964
863,2.49646616,-0.930158973,-7.069703102,118.5602951,-36.57315826,60.81137466
864,1.184249282,-2.691728354,-6.200360298,110.8285751,-65.03533936,38.46459198
865,-0.718844771,-6.17850399,-7.97044754,119.2199936,-54.93815613,21.68468285
866,0.866736591,-7.496130943,-10.18051243,151.3769836,-29.47709274,9.476863861
867,3.276394367,-7.419953823,-9.54852581,205.6752777,-19.79149818,16.04523087
868,5.006845474,-5.555235386,-7.926608086,229.7461395,-16.76255035,29.27626419
869,4.50541544,-3.481900454,-8.466852188,219.8039246,-20.94155693,22.59818649
870,2.979690313,-1.570687532,-10.38592052,211.6376801,-25.68284798,26.16008377
871,3.842921972,-0.37877059,-8.011515617,150.2526703,-16.5656929,42.81624985
872,3.133494139,-1.115798116,-5.417015076,47.23978424,-6.366178513,45.77865982
873,0.072793327,-3.130867481,-5.631158352,-15.57356739,-13.76364613,41.49912262
874,-1.734273434,-3.555126905,-6.534858704,-61.17446518,-38.37343597,29.18749619
875,-0.955173135,-4.389201164,-6.744724274,-132.7199097,-53.20003891,17.70082092
876,1.447337151,-5.045273304,-5.970088959,-206.4545441,-42.88037491,-2.497661591
877,2.880719662,-2.057767391,-4.767009258,-219.2444153,-33.77660751,-28.60008812
878,1.630170822,-2.821298838,-6.542432308,-197.143692,-14.18214035,-26.93264771
879,0.661122262,-6.899831772,-7.492795944,-161.3760071,-2.536525249,-9.617577553
880,2.189047098,-8.394041061,-9.105083466,-127.2089691,15.50325775,-14.62775707
881,4.985715389,-6.545590878,-10.22580147,-103.8454437,13.55319786,-29.3975811
882,5.816102982,-4.270145893,-8.98888588,-95.73736572,11.70870018,-31.60155678
883,4.193664551,-2.302359343,-9.45643425,-75.52797699,-1.554698825,-20.56576538
884,1.858202577,-1.843041539,-11.61447906,-36.42746353,-21.61367989,-11.73935318
885,0.513867438,-3.239036798,-10.81000996,-29.9525528,2.200989962,-7.075762272
886,-1.246351123,-4.61746788,-8.227073669,-10.72890186,31.73511887,-6.921482086
887,-0.281791717,-6.160482883,-8.293627739,0.115411773,43.70742035,-19.77262306
888,1.435581923,-5.980625629,-11.06178379,8.703179359,50.74716568,-27.76539993
889,1.847552538,-5.240242004,-11.06365204,10.13263416,36.20474625,-19.82044983
890,1.676643372,-3.46283412,-10.11171722,2.661360502,26.85722351,-15.93742847
891,2.18038249,-2.484625816,-8.170434952,-25.75212669,25.04384995,-16.28886223
892,2.112929344,-2.520017862,-7.862885475,-70.04520416,32.06650925,-15.8129282
893,2.666257381,-1.374508142,-10.5319767,-57.81550217,52.60180664,-17.75869942
894,2.21656251,-0.744296789,-10.6133976,-35.49894714,59.50190353,-22.32442474
895,2.621684313,0.294939488,-9.227540016,-50.93333435,57.7606163,-29.63193321
896,3.783114433,-0.156115949,-7.677734375,-85.69081879,40.71901321,-26.06962013
897,3.882090569,-1.584307551,-8.05313015,-113.0256271,26.56348419,-20.79872322
898,3.426063061,-2.352658033,-9.440686226,-139.3184052,27.8350544,-12.0692482
899,3.227808237,-1.758725166,-10.43161297,-150.6969452,41.55234909,-1.774024129
900,2.299732685,-0.076214567,-9.364617348,-155.7507935,56.06679535,-1.543455005
901,0.326736569,2.041988373,-7.286739826,-198.7785797,64.07556915,-12.60198307
902,-1.557901263,4.75479126,-6.69518137,-287.4556274,62.01929474,-25.63752937
903,0.04749386,7.124748707,-11.11901855,-278.3406982,30.27002907,-17.39483833
904,0.658168554,5.122025013,-11.36448574,-224.858078,-18.54048729,-18.77971649
905,1.862812638,2.730114937,-10.19361019,-236.7591095,-46.54586411,-37.14854813
906,3.010886431,2.108304739,-8.780003548,-245.0077057,-59.10011673,-45.49192047
907,4.255497456,1.056029201,-8.796434402,-259.9992371,-55.06418228,-36.17744446
908,4.10444212,1.192483664,-8.916021347,-244.8264465,-54.77200317,-20.30747795
909,3.710477114,2.036023855,-10.04512405,-196.5578308,-47.9293251,-21.77846909
910,4.51718092,2.891950369,-8.456783295,-155.9558258,-55.07885361,-36.74712372
911,5.279312611,3.134795427,-6.925064087,-163.3951874,-72.20282745,-44.36083221
912,3.326579571,3.925704956,-6.820544243,-170.1016083,-77.96398926,-54.03637695
913,1.740982175,4.144526958,-8.428720474,-127.2942505,-100.2718506,-48.17891693
914,1.025571108,2.872899532,-8.176887512,-76.44189453,-74.50089264,-43.4882164
915,0.727859974,0.644739211,-4.870473385,-22.19297791,-50.245121,-53.10684586
916,-0.025532689,0.088373438,-5.572676182,15.44851494,-36.85373688,-66.53181458
917,-0.097171381,2.413636923,-7.377131939,105.3339233,-56.19114685,-52.71008301
918,-0.79523766,6.035407066,-7.380146027,168.972702,-72.941185,-31.19499779
919,0.505857885,6.037676334,-6.575109482,184.1345367,-61.45822144,-5.788983822
920,-0.422221959,3.326935291,-5.645588398,155.8939209,-39.42910385,5.870794296
921,0.251662523,5.465605259,-8.025729179,173.2538757,3.073574305,2.51509428
922,1.857459307,5.379896641,-9.626959801,204.9182587,9.626795769,14.82032871
923,2.200847864,3.569765806,-9.897434235,215.9487,0.491506398,25.10481644
924,3.057365894,2.958218813,-10.40091705,229.4597778,-10.21956921,35.09037399
925,4.037737846,2.632594585,-10.52052307,224.2461853,-26.96299362,42.87530899
926,3.392287731,2.739251375,-10.69231415,169.9328918,-18.81580353,40.20970535
927,1.453509569,3.699342728,-10.64234924,107.7534409,17.92633057,31.79829025
928,1.869348288,6.089470387,-10.78457642,56.32924652,32.11785889,38.5070343
929,1.302140117,6.680312634,-11.93064022,-0.134583116,29.26865196,40.45206451
930,-0.34873414,4.128247738,-12.12543297,-48.63228989,36.32676697,34.89605331
931,-0.780553102,1.91291213,-11.05927086,-64.31180573,39.82788467,29.97260857
932,-0.229615048,0.314054906,-11.06847858,-62.56206894,35.85684967,36.9201355
933,1.996011376,0.37739262,-9.178823471,-86.50655365,58.0469017,31.35677719
934,3.647084713,0.945915222,-4.998549461,-106.3340683,92.81848145,6.650132656
935,3.80860281,-0.527182519,-6.587487221,-64.17758179,81.20330811,1.076945782
936,1.317716599,-0.386414826,-8.688506126,26.21730042,52.13484573,31.27639008
937,1.423609138,0.75747031,-8.393327713,85.96890259,23.32637978,56.42658234
938,3.459674358,0.005640171,-8.060251236,71.42804718,9.791786194,49.06767273
939,5.464184284,-2.448936224,-9.999575615,53.44117737,28.28257942,12.42028046
940,5.318010807,-3.382272482,-10.93841362,88.27415466,22.39775467,-14.54832172
941,2.116541386,-2.428041935,-10.94128799,120.1261597,53.68338776,-26.69771004
942,0.12915507,-1.051756263,-8.213879585,120.8280182,99.49913788,-19.31679535
943,-0.871495187,-2.617526293,-6.07895422,138.8861694,63.62262726,1.432552934
944,1.157941461,-5.113527775,-7.528475285,127.5066833,22.02210808,2.511211157
945,2.30190897,-3.754508495,-11.7462759,132.5780487,1.117609501,-11.35498428
946,0.978711784,-1.919992685,-11.27264309,140.4979706,-3.514359474,-8.915982246
947,1.732573628,-1.316510201,-11.45965481,162.0758362,-4.737996578,8.491738319
948,2.679032087,0.1713586,-9.349101067,160.4192352,-2.616487503,16.23497963
949,2.98169136,-0.249820784,-8.235630035,136.4493408,-19.68749809,20.13173676
950,2.412485361,-2.202018023,-8.036463737,145.77948,-30.52382278,22.61884689
951,2.346369743,-5.23096323,-9.349596977,191.3482666,-40.4389267,27.39880943
952,2.414859533,-6.377282143,-9.844613075,243.1182861,-22.98031998,31.00845718
953,2.651475906,-5.911397934,-9.413836479,278.1638794,-27.67597389,39.84852982
954,4.482074261,-4.382625103,-8.750531197,275.0414734,-14.02330112,34.08475494
955,4.952455997,-2.753695726,-8.706205368,251.7084045,-9.798337936,23.06615448
956,4.33274889,0.200869083,-8.865032196,215.3986664,-21.8463459,27.67888451
957,2.849593639,1.510268092,-8.525577545,157.2434082,-26.36859131,31.79526901
958,1.110777378,-0.320086718,-6.795268536,62.45459366,-43.06077957,36.44486237
959,-0.796167612,-2.578398705,-6.847745895,-42.14032745,-67.58771515,31.75851822
960,-0.032985281,-2.50415659,-7.557628155,-69.45957947,-53.68936157,28.72659492
961,1.006003022,-2.847122908,-7.314217567,-105.5971375,-45.17052841,19.28091812
962,1.901098847,-3.600923777,-5.258522987,-159.4779968,-43.6345787,-7.393696785
963,2.322486639,-2.556835651,-5.068422794,-153.4702911,-44.53395081,-30.44739532
964,1.840492964,-4.113050938,-6.444468021,-128.3235626,-23.99389839,-26.08160591
965,1.843526244,-6.275400639,-6.354969978,-98.48563385,-0.579283059,-7.794089317
966,3.329327345,-5.669848442,-9.619907379,-63.64876556,15.01756763,-6.213216305
967,4.982421398,-4.824986458,-9.596783638,-52.09181976,-4.404199123,-11.35523605
968,6.231820583,-3.918132067,-9.264389992,-67.83123779,-7.285663605,-22.07518959
969,4.985061646,-2.565690041,-9.152550697,-97.15445709,-4.252122879,-33.55714417
970,2.050911188,-1.396932364,-10.9887352,-86.23529053,-11.78254986,-28.92107964
971,-0.316533118,-2.21487546,-12.53600597,-53.16799927,20.56574249,-20.00076675
972,-0.34807381,-3.943223953,-11.63695049,-16.80564499,51.73927307,-21.70770454
973,1.598274827,-4.01985693,-9.285199165,-17.0044136,56.87048721,-30.92220306
974,1.867572427,-3.349366188,-9.061713219,-34.99698639,34.65557098,-45.82683563
975,0.324401319,-3.920032978,-11.10173225,-39.22503281,16.47398567,-51.21826172
976,-0.252687246,-3.966445923,-10.790205,-43.73721695,19.71893311,-41.6338501
977,1.843585253,-3.025007248,-10.41910553,-48.6701622,27.55379868,-32.7429657
978,3.345338106,-1.779020667,-9.042016983,-62.22394562,27.11445427,-32.02655029
979,3.198312044,-1.521773696,-8.680713654,-82.80208588,39.12665176,-34.71229935
980,2.574141502,-1.818380356,-9.63852787,-64.54193115,43.94163895,-27.64614487
981,1.833552122,-2.719775677,-9.772299767,-45.32577896,27.04398727,-25.56696892
982,2.797902822,-1.668583393,-9.821855545,-30.54912758,26.36314392,-21.18072701
983,4.924254894,-0.956094325,-9.201709747,-38.72274399,24.61131287,-8.861780167
984,4.827791691,-0.614599466,-9.353191376,-56.72994995,18.34941673,-4.221524239
985,3.020654678,-0.08650396,-10.01450157,-68.44567108,24.46673775,-6.391768456
986,1.261180282,0.314462483,-9.629146576,-88.06296539,39.59938431,-2.254555225
987,0.607345402,1.143428802,-8.149731636,-126.4457092,51.86887741,-2.211981297
988,0.140322596,1.719465017,-6.606499195,-188.5104065,61.06760025,-5.305892944
989,-0.624392271,3.439863205,-4.686349869,-260.7251282,67.33532715,-15.35280895
990,-0.142856166,6.064631462,-8.007390022,-246.0943451,35.01456451,-21.88796043
991,1.634050846,5.757134438,-11.40060997,-185.0997314,-35.13376999,-19.02152634
992,3.194668531,3.157554865,-11.47828388,-193.2838745,-69.98928833,-24.96912575
993,4.283673763,2.024850607,-9.786393166,-232.6151581,-74.43782043,-35.39514542
994,3.874715805,0.816679358,-8.468281746,-254.2117767,-50.94528198,-36.96157074
995,2.611430407,0.731119275,-8.275017738,-251.7915955,-30.56502914,-29.81276512
996,3.391585112,1.342225552,-8.863667488,-196.2562256,-16.58278275,-24.06331635
997,4.603304386,2.693327427,-8.157836914,-157.4308929,-29.15696144,-34.54603958
998,6.355870724,4.035345554,-7.11984539,-153.8765106,-64.19939423,-45.03761673
999,5.466709137,4.610208511,-7.339039326,-166.9764557,-94.40387726,-45.64671707
1000,2.198214769,4.053292751,-7.297763824,-150.600174,-112.2301559,-46.16339493
1001,-0.32416445,2.92970705,-6.365239143,-119.3544693,-122.9311523,-53.62851715
1002,-0.945500195,2.486695766,-4.314910889,-55.85670471,-143.7216949,-67.22155762
1003,-0.748707294,3.045292616,-4.49659729,11.5328989,-118.4778137,-62.96140671
1004,-0.185807735,1.767481446,-7.521544456,100.4198303,-100.3127594,-44.3662262
1005,-1.523944974,1.199308395,-8.120317459,194.901886,-132.0420532,-26.22453499
1006,-0.952546179,2.222029686,-8.728128433,231.3955231,-109.138504,-15.92233944
1007,-0.036615215,0.834451854,-8.509943008,178.7743073,-23.14938736,-22.93411446
1008,0.52994585,3.435978889,-8.576658249,110.9395828,30.61738968,-35.53644562
1009,1.217987418,5.358676434,-9.814700127,119.949913,45.85640335,-32.05731964
1010,0.561980188,4.711832047,-10.42590523,182.392746,50.58841324,-20.11273956
1011,1.102900863,2.911335945,-11.42982578,218.2460632,42.87710953,-7.053828239
1012,3.548317909,3.10763979,-11.7291069,236.616333,34.62295914,2.087119341
1013,3.712300777,3.897876501,-10.7951498,216.9328461,13.91223145,14.73096466
1014,1.746707916,3.818143845,-10.3865366,168.4283447,34.5283432,20.6968441
1015,0.723942161,4.572618484,-10.45209217,124.3528061,50.84192657,26.21544075
1016,0.852689385,5.064225674,-10.54911137,63.85868454,44.37461853,31.85014153
1017,-0.271212369,5.073283195,-10.84728909,4.074223042,48.73815155,31.89837456
1018,-1.265764713,3.9412117,-11.88148689,-44.5123291,51.18315125,29.84654999
1019,-0.21759212,2.929054499,-12.05509853,-57.84272766,54.46944427,34.77878571
1020,1.05366993,0.73687011,-10.59598541,-54.05561447,62.51265717,42.98134613
1021,3.225144863,-0.776703596,-7.716922283,-70.87866974,83.59433746,29.11014366
1022,3.917374849,-0.673132658,-5.43419075,-85.6346817,111.5092468,9.945715904
1023,3.646952868,-1.238789797,-8.709183693,-17.26384544,88.96698761,20.27203751
1024,2.361073494,-0.754713953,-9.872507095,63.94740677,58.86555481,53.36416626
1025,2.737976551,0.346299857,-8.967971802,93.25828552,37.89595795,67.31099701
1026,3.729911327,-1.348442435,-9.508230209,87.81149292,30.49012184,55.6035614
1027,4.387116432,-1.728503346,-11.73303699,89.35493469,44.86352158,25.29861832
1028,4.997245789,-1.21013546,-12.12287521,93.16365051,42.04407883,-3.252714872
1029,2.046182156,-1.061499119,-9.978604317,93.00740051,38.04601288,-13.02454185
1030,-0.141740739,-2.409234762,-7.531765938,96.3039093,50.42615128,-1.108845592
1031,-0.518466651,-4.270173073,-5.240097523,138.9401855,16.60785866,12.00754929
1032,0.840152681,-5.054100513,-5.696132183,153.4800262,-32.11793518,9.975310326
1033,1.617110014,-4.534840107,-11.36031055,138.3613586,-54.9381752,5.563673496
1034,2.540203094,-3.221329927,-10.37372112,170.9701843,-51.32516861,3.547994852
1035,2.571470499,-2.324086189,-7.838480473,190.1244965,-42.25694656,15.41806984
1036,2.617967129,-3.115604877,-7.106832027,182.2811737,-20.89446449,29.70632362
1037,3.207487345,-3.234893084,-8.509788513,186.545639,-13.52312469,23.89199066
1038,1.351497173,-3.915035486,-9.934168816,226.5672607,-17.8268528,23.63355827
1039,1.357916951,-4.616804123,-10.05125618,259.1911926,-7.620091915,34.57397079
1040,3.798021793,-3.770349503,-8.658346176,248.2506866,-11.6643219,33.11926651
1041,5.450783253,-1.888255954,-7.015502453,213.2054138,-25.13682938,28.3372097
1042,4.243420124,-2.230340481,-7.273320675,166.8425293,-45.91292953,23.88669395
1043,2.604267836,-3.263017416,-9.081583977,149.3049011,-38.38633728,27.84969902
1044,2.307776451,-3.323034286,-7.255582333,134.5341797,-25.01367188,47.20475006
1045,1.830752134,-4.117383957,-5.849925518,86.11574554,-33.3572731,62.8549614
1046,-0.357032865,-5.086495399,-6.264697552,13.5370121,-33.84430313,60.76796341
1047,-0.607215941,-5.045140266,-7.106295109,-37.88647079,-41.68669128,43.54563141
1048,0.99061507,-3.349716425,-6.728140354,-64.61587524,-48.06282425,26.36249161
1049,0.661819756,-2.953412771,-6.177813053,-132.055954,-48.82726669,11.82852554
1050,1.995628357,-2.445380688,-4.636800289,-181.0927734,-43.72104263,-9.491719246
1051,3.358483076,-1.23232317,-6.383672237,-169.3302307,-33.07066345,-20.0614872
1052,1.21092999,-4.282292366,-6.452936649,-156.8652496,-16.56793976,-4.920849323
1053,1.10102284,-7.002521992,-8.206073761,-144.5676575,-12.95063972,0.743918419
1054,3.288547516,-7.017146111,-9.442852974,-115.1708527,-3.598134279,-14.1185503
1055,5.736516476,-4.549695015,-9.190786362,-107.2100143,-8.126194954,-23.41289139
1056,5.76414299,-1.962833881,-9.678386688,-105.6914444,-11.00323391,-20.00342369
1057,3.132241249,-1.587452173,-11.27030277,-77.54316711,-20.80062675,-9.829367638
1058,1.545806885,-3.072556734,-11.1266489,-75.44854736,2.15136528,-18.66295052
1059,0.152626693,-4.378469944,-10.81084728,-60.85536194,32.16595459,-25.93730545
1060,-1.304526091,-5.676327705,-8.945192337,-59.19405365,31.00711632,-36.74631882
1061,-0.490672529,-4.495018482,-10.179883,-51.3637352,39.53378296,-41.7812767
1062,0.447287112,-3.720330715,-11.75525188,-35.74372101,39.8417511,-40.96880722
1063,1.398749471,-2.752326488,-11.28604984,-26.97212791,33.2119751,-41.7757988
1064,2.444144249,-0.941204667,-10.51066589,-30.64876747,34.5176506,-38.85280991
1065,3.540646315,-0.996992409,-8.624372482,-63.43082809,42.31642151,-32.239048
1066,3.476216316,-1.690472245,-8.246264458,-80.93411255,63.03544617,-32.21389771
1067,2.68475008,-0.610036194,-10.88971519,-43.62914658,65.75676727,-38.39917374
1068,2.413463831,-0.072588682,-11.34899902,-25.91371155,71.709198,-34.45235062
1069,2.443522215,0.845678687,-9.94962883,-40.7745285,81.72346497,-10.32035542
1070,3.121606827,0.24918142,-8.699897766,-96.37388611,70.74494171,2.455760479
1071,3.828840256,-0.116667986,-9.431764603,-136.3027649,70.53187561,-0.94601965
1072,2.817830563,-0.314781755,-9.987402916,-140.8118896,58.51673126,-10.34130001
1073,1.523669362,0.469111621,-9.137080193,-149.2759857,57.38202667,-14.91092968
1074,-0.537448585,1.687278748,-6.92630291,-182.8021393,59.65908051,-28.1067009
1075,-1.164674997,3.884029865,-5.700103283,-231.4349213,51.82561111,-36.73854446
1076,-0.816329837,5.541389942,-8.7742033,-217.4192505,2.234006882,-32.91458511
1077,0.930569172,5.511329651,-10.56135559,-177.0847931,-46.76228333,-25.18076706
1078,3.107121468,3.944253683,-10.26353168,-186.4677887,-71.42917633,-28.58747482
1079,5.080565929,2.158666611,-10.0446558,-213.6482391,-73.31894684,-37.02188492
1080,4.795628548,0.66250211,-8.530266762,-240.1502686,-52.82125854,-45.85424423
1081,4.153858662,0.959358335,-8.720423698,-242.0764618,-44.09017944,-41.76633453
1082,3.509343147,1.884144545,-9.476575851,-194.0104065,-41.08852386,-42.36581039
1083,3.708359241,2.939417839,-7.934682846,-149.7870483,-58.37199783,-50.13886642
1084,4.578007221,3.860204697,-6.356210232,-153.6044464,-86.48078918,-48.30081558
1085,3.439900398,4.174247265,-6.453869343,-174.2562714,-96.9477005,-40.53383636
1086,1.305894852,2.08093977,-5.475062847,-121.2783127,-144.4905396,-40.50294876
1087,-0.76825285,0.941028237,-5.900735855,-104.2851715,-123.3626328,-43.04368591
1088,-0.314596593,0.965726197,-7.355923653,-53.87042618,-91.94886017,-42.38746643
1089,-0.153280213,2.125501871,-6.004591942,47.06061172,-80.89382935,-38.22501755
1090,-0.673528135,3.121899843,-7.883814812,156.3751984,-89.08451843,-28.73426819
1091,-0.407890558,2.431170225,-9.751019478,217.1070862,-73.67120361,-21.31167221
1092,0.349243581,2.427604437,-9.403158188,238.7032776,-51.89215469,-15.93921852
1093,-0.047802221,0.526658893,-7.030684948,229.5304718,-5.229998112,-9.371740341
1094,-0.60224843,1.911652923,-7.947033405,223.1184387,53.93105316,-9.37371254
1095,1.117729545,6.178128242,-10.95598602,254.8771973,71.86405182,1.372533321
1096,2.886679173,7.271648884,-11.99904633,260.710083,48.57464218,7.795025826
1097,3.765605688,6.056900978,-11.75919151,229.1290588,27.83190727,11.05199528
1098,3.717595816,4.234748363,-9.842055321,191.3552856,5.287800789,23.35337067
1099,1.97583437,2.045236588,-8.879712105,127.87146,8.597599983,21.71798897
1100,1.619545817,1.896258831,-10.92987633,86.253685,29.62576103,10.38632679
1101,2.526616096,2.947417974,-11.45562744,57.64569855,38.79837036,18.63486862
1102,0.70697093,2.569292307,-12.11616135,24.21684074,60.78953934,26.16671753
1103,-0.313302279,1.421133995,-12.34573269,-20.23812675,71.80270386,26.25443077
1104,0.545352995,0.791148901,-12.38104248,-58.14260864,84.16094208,23.51973915
1105,1.63737905,-0.528480232,-11.20645618,-42.58923721,91.05512238,22.8516922
1106,2.974905491,-1.128578424,-9.025027275,-7.333696365,100.442215,15.20104694
1107,4.013444424,-0.24550657,-7.843004227,17.54501152,110.7612305,3.147524357
1108,2.94501853,0.902063966,-10.66699505,48.6195488,100.2439117,6.087527752
1109,1.833663225,0.121729285,-9.829779625,34.43878555,97.71815491,12.6574564
1110,3.081522465,0.105286464,-6.324942112,43.16969299,69.93679047,10.23362732
1111,2.637949228,-3.545812845,-5.60997963,63.48529053,53.88806534,9.712467194
1112,1.499117732,-5.651195526,-8.365924835,70.52120209,52.06769943,9.095389366
1113,1.562917829,-5.803038597,-9.831760406,80.83103943,52.50110626,-4.696959496
1114,1.878514767,-4.366875648,-6.643083572,123.9333038,43.3045578,-9.450035095
1115,2.081392765,-2.547499895,-6.616262913,130.5023041,-22.23812294,2.211146355
1116,2.702000141,-3.572505713,-8.188632011,121.8739471,-55.89558411,10.26556301
1117,2.394671917,-3.773030043,-12.29887486,112.8965149,-62.54483032,8.63807869
1118,2.437658787,-2.057768106,-11.54853439,165.0617828,-29.14848518,9.857034683
1119,2.168727636,-0.720460594,-9.161576271,168.4033356,-2.534047842,27.57447433
1120,3.524021864,-2.294267416,-5.688838959,117.7928009,-16.56196404,50.05634689
1121,4.135868073,-3.9150033,-6.295594215,93.79537201,-25.46893311,51.95714188
1122,3.718737841,-4.291831493,-7.079837799,161.2350464,-18.56912231,45.39360809
1123,1.407377601,-5.645485401,-8.329745293,209.659256,-25.07614517,48.22019196
1124,1.306003928,-5.477133751,-8.472925186,225.9896851,-29.35528183,52.19755173
1125,3.245347023,-4.049500942,-7.38592577,214.7379913,-31.32358551,48.35241699
1126,5.150378704,-4.102679253,-7.351006031,172.2919922,-38.41269302,43.03881073
1127,4.768771172,-3.461843252,-9.371628761,152.2644043,-48.25284195,30.85555458
1128,3.53946805,-1.203064442,-7.867277145,135.3296967,-50.22262192,20.01723289
1129,2.367777824,-1.407146096,-6.107544899,69.76900482,-66.94142914,33.84116364
1130,0.4631733,-3.091677904,-7.351622105,-18.53017426,-68.26087952,44.55327606
1131,0.069978841,-3.248763323,-7.690029144,-51.63005066,-46.12266922,43.04085541
1132,-0.196855575,-2.604388714,-7.561997414,-62.38394165,-23.64645195,30.62451363
1133,0.230486587,-3.613509178,-7.054911613,-115.1289978,-23.31949425,10.3877449
1134,2.363542795,-3.134023666,-4.396865368,-153.2162933,-22.31755447,-18.99822426
1135,3.901924372,-0.853699684,-6.229301453,-144.2749481,-19.29702568,-32.25267792
1136,1.117771387,-3.196184874,-7.914852142,-140.9104004,-18.65060616,-12.98040485
1137,0.70287472,-6.01818037,-9.881690025,-105.6347427,-12.16509533,-1.425941229
1138,2.992152929,-8.18842411,-9.75067997,-81.63552856,1.115440726,-13.35883045
1139,5.457902431,-7.250641346,-9.379653931,-81.37025452,-2.43497467,-30.75191689
1140,5.231230259,-5.514668465,-8.506514549,-72.05734253,-2.258757114,-33.33395004
1141,2.910283566,-3.654451609,-10.21883297,-50.77524948,-32.91753387,-26.44148064
1142,2.729138851,-1.830944896,-12.67893314,-45.74147415,-10.17980957,-20.93785667
1143,0.043269441,-1.228264689,-11.88418674,-49.27383423,34.99206543,-25.43658257
1144,-1.768159389,-1.715201616,-8.000747681,-51.98748016,56.16122055,-38.04553986
1145,-0.510900378,-2.346529245,-9.174674988,-43.67734528,36.31289673,-46.84621048
1146,0.998962462,-4.694909096,-11.21470451,-23.25284767,20.00300026,-48.58769608
1147,1.551193476,-6.450363636,-11.58636093,-12.65883923,21.89174271,-42.32836151
1148,2.326633453,-4.216926098,-10.41592884,-13.09310722,28.01156044,-35.2394104
1149,2.544532299,-1.893795371,-7.788387299,-39.45626068,30.96354294,-23.49216843
1150,2.681546688,-0.758094311,-8.423516273,-60.79445648,38.47232056,-24.25289345
1151,2.324183226,-0.626739562,-8.08150959,-38.45058823,38.93019867,-24.33124542
1152,1.743571401,-1.0366081,-8.678430557,-27.78561974,37.22598648,-19.49059296
1153,2.760066032,-1.852907538,-8.875321388,-31.92368889,44.26023483,-6.71030426
1154,3.383904696,-1.631049037,-7.558115482,-58.14784622,36.15053558,9.017237663
1155,3.794753313,-1.738412857,-8.718891144,-72.13544464,27.78159523,16.81772041
1156,3.464023829,-2.632132769,-11.78821182,-44.67349625,35.8977356,17.73135185
1157,2.195741177,-1.455259323,-12.38065243,-10.57812405,40.06997681,28.01194
1158,0.533256173,-0.051404633,-10.00984955,-26.6527195,41.73351669,23.7070179
1159,-0.017864298,2.140965462,-6.94411993,-102.4020844,42.4936142,-0.574684262
1160,0.825425863,3.35547781,-6.376047134,-197.4969482,35.22985458,-15.56744957
1161,1.901966691,3.60182476,-9.621605873,-225.6048737,16.50583458,-11.6740818
1162,1.900019169,2.330394983,-11.93396568,-198.3930206,-15.34713459,-7.280337811
1163,2.760895252,0.364813149,-11.70053196,-178.6046753,-33.43008423,-18.62604332
1164,4.501636505,-0.072540328,-8.246003151,-194.754303,-30.6774025,-41.4066124
1165,3.590417624,0.163418144,-7.253652573,-239.8711853,-27.09132195,-49.93739319
1166,1.834526658,0.295196474,-8.714371681,-243.734314,-28.5218277,-39.32619095
1167,1.77966547,0.752823353,-10.35600853,-197.1584473,-30.76740456,-27.51081085
1168,3.418008804,2.515590191,-9.584051132,-163.1261139,-38.20769119,-32.87036514
1169,5.846442223,3.311178446,-8.585512161,-156.0975952,-58.4691391,-38.50801849
1170,6.048320293,1.965638041,-7.588843822,-178.2559662,-88.83475494,-39.94906998
1171,3.481300116,0.962802112,-7.345127106,-203.4372406,-76.39194489,-50.55457306
1172,1.533116102,1.947197914,-7.78824234,-169.0452423,-61.86701965,-58.14321518
1173,0.783228993,2.684411526,-7.333333015,-99.49729919,-60.0042038,-50.97883606
1174,-0.30802536,2.915934324,-4.880887508,-40.84604645,-49.94995499,-47.91168976
1175,-2.074229717,2.330015182,-4.498986244,38.66784668,-81.91512299,-46.37561035
1176,-2.372019768,1.012785554,-9.215246201,157.2733612,-113.517395,-30.27785301
1177,0.642070174,1.047425151,-10.42668343,251.1369019,-101.753067,-15.46550655
1178,2.763734341,0.659774184,-7.769066811,263.7371826,-88.28217316,-4.950530529
1179,1.316459537,-0.180643469,-7.701874733,225.895752,-40.28827667,-0.839176595
1180,-0.362872243,2.19700551,-8.86852169,234.2498627,30.31330872,2.021899223
1181,-0.327404946,4.856225491,-10.55942345,258.0376892,44.34682846,11.99591637
1182,0.902808487,4.827885628,-11.85103226,265.0413818,28.02779198,21.6033535
1183,3.468238592,3.197616577,-11.88960171,244.2359772,22.4101181,25.16693115
1184,5.650379658,2.379911184,-10.53766823,201.1889343,11.08601475,26.46234131
1185,4.080817699,1.26447463,-9.583708763,139.206955,3.411257982,14.57999992
1186,1.440763354,0.784128666,-10.01041985,94.79522705,24.52064514,6.927811623
1187,1.360809803,1.748372197,-10.33067322,60.98789978,41.99657822,20.9165554
1188,-0.055006929,2.53736949,-11.77725983,35.4650383,38.0552597,36.89510345
1189,-0.330674499,1.721669078,-12.40884304,3.494214058,35.47371674,38.16713715
1190,0.682039678,1.105671167,-12.38944244,-53.95166779,47.53856277,26.31395912
1191,1.063000441,0.206556112,-11.711339,-92.07151794,50.49858093,23.93396568
1192,2.86280489,-1.299283981,-9.526922226,-114.2453079,57.15433502,17.04315948
1193,4.459617615,-1.571997643,-6.068677425,-142.6203308,81.80202484,2.386126995
1194,3.488851309,-1.784274578,-6.470246315,-119.0822906,119.5853424,-7.81104517
1195,2.356808662,-2.84317565,-9.312005043,-29.77248383,93.37644196,5.152803898
1196,1.521308184,-1.625100374,-10.93303776,45.38603973,58.03226471,36.32712555
1197,3.053596497,-0.042045273,-10.25094318,60.73269653,24.0808773,35.80408859
1198,4.302708149,-1.075063705,-9.263272285,52.72034073,15.31308937,9.940306664
1199,4.204648495,-3.973599672,-8.826349258,56.31690979,27.40242004,-10.58166027
1200,2.667776823,-5.750172615,-9.156360626,39.19729996,66.97380829,-20.79937553
1201,1.285099149,-4.806818485,-7.628619194,45.63961411,68.63167572,-28.75291061
1202,1.149292231,-2.166640759,-5.73454237,93.40693665,44.2105484,-30.16009331
1203,0.983022153,-1.942706704,-5.0499506,130.1826782,-9.598451614,-11.19347668
1204,1.410691142,-3.402756691,-8.258102417,107.436264,-48.23308182,8.289951324
1205,0.906846225,-3.905152798,-12.04623318,93.78401947,-47.71723938,26.46967697
1206,1.693489313,-3.753330231,-11.3190155,115.6228333,-23.44418335,30.55803108
1207,2.891762972,-2.590945959,-10.01137924,144.5637817,-19.50640106,32.23693466
1208,2.55514431,-3.249745607,-7.380941868,148.8741302,-20.99887466,29.20815659
1209,1.98652041,-2.9985466,-7.693603516,167.2503357,-20.121315,33.18369293
1210,0.765092313,-3.367736578,-8.101025581,195.8408508,-35.49360275,43.15304184
1211,1.07267797,-5.368848324,-8.868591309,210.3003693,-28.46693993,42.24484253
1212,2.538315535,-5.345792294,-8.332712173,216.1535034,-11.51752472,35.30171204
1213,5.275670528,-4.858179569,-7.874361515,214.5823669,-13.83288479,33.72980118
1214,6.326167583,-4.426947594,-8.260932922,196.6563721,-25.86644554,30.4988842
1215,3.989997387,-2.142524004,-9.208913803,179.5859985,-30.47683716,29.79029083
1216,2.931180716,-1.242760301,-8.07227993,125.5695496,-35.8892746,36.45427322
1217,1.879932642,-1.246167064,-6.508894444,16.82906723,-43.90549088,38.33771515
1218,-0.244395018,-0.846284211,-7.865168095,-68.20453644,-47.33891296,33.87351227
1219,-0.68028754,-1.717066526,-8.701844215,-97.80412292,-48.48484802,31.14059448
1220,0.00189596,-2.340059996,-7.267540455,-111.7445908,-40.97386169,21.91618919
1221,-0.003886467,-3.85914731,-5.335283279,-156.0113831,-42.59574127,6.289107323
1222,1.647598028,-3.509227037,-4.886637688,-173.2644348,-32.37049866,-16.48885918
1223,2.690614223,-3.66806221,-7.656341553,-142.9447937,-11.45987415,-17.04578781
1224,2.213157177,-4.973584175,-7.263967514,-125.675293,2.083043337,3.761549473
1225,2.378180027,-4.350412846,-9.461627007,-117.9357681,-2.936505556,2.308842182
1226,3.057237864,-3.028075218,-10.96909237,-104.3077087,-13.73140621,-15.03353024
1227,4.683103561,-2.229473829,-10.88656425,-97.94632721,-5.936672211,-15.03388882
1228,5.128573895,-1.760413408,-9.955815315,-99.36027527,12.4071312,-8.074440956
1229,3.627024412,-2.907084703,-9.674050331,-90.75654602,16.56721115,-5.851364613
1230,1.040902734,-4.563363075,-12.21788883,-58.110569,17.57165337,-15.87909889
1231,0.283861578,-4.855471134,-11.15115452,-15.70631218,38.45336533,-15.47361946
1232,-0.414051294,-3.972126245,-7.729439735,-2.287650585,48.03735733,-14.34788132
1233,-0.749844432,-2.713525057,-9.020537376,-0.442256361,32.13297653,-14.2737484
1234,1.328760982,-2.883252144,-11.76919556,-18.27145386,15.16631603,-23.32115364
1235,2.065365791,-2.790921926,-11.42540455,-30.93323326,26.31708717,-27.64780045
1236,1.843442678,-1.960549116,-10.14520073,-32.01111221,27.45005798,-25.10132217
1237,2.961521864,-1.382916927,-8.703083992,-52.74530792,33.11013794,-18.08613777
1238,2.980863333,-1.660054088,-8.620961189,-74.00512695,42.81400299,-10.37042904
1239,2.229467869,0.087593406,-9.628483772,-56.5231514,36.81998825,-9.164885521
1240,1.197184324,0.377559841,-9.527106285,-53.00693512,35.55033493,-19.2587471
1241,2.76715517,0.465658188,-9.142513275,-64.41293335,35.20733261,-18.65889359
1242,4.346905708,-1.10029161,-10.32378197,-73.27825928,38.50670624,-2.754212618
1243,4.290593624,-1.992491961,-11.04210567,-80.67350006,54.05088806,3.83581543
1244,2.827496529,-1.138844013,-10.80768871,-91.60251617,58.24474716,0.069554172
1245,1.535482407,1.336606264,-10.09466648,-113.6063156,60.36660004,-4.164176941
1246,0.094366699,3.310845613,-7.95874691,-153.4680023,75.52336884,-11.5518465
1247,-1.256360412,4.683690071,-4.967700958,-234.6807709,84.57281494,-31.25045776
1248,-0.72531414,6.471217632,-7.357704639,-252.0514374,35.83316803,-36.05199432
1249,0.169910401,5.50210762,-9.910153389,-200.9920654,-22.2910614,-27.9656086
1250,1.3525244,4.538217068,-10.1159296,-190.5776215,-51.04605484,-20.41977501
1251,2.25381422,2.743738174,-9.956831932,-192.068924,-61.10826111,-10.80966282
1252,2.760329723,1.048868656,-8.773428917,-197.000946,-62.56806564,-6.155787468
1253,2.618322134,0.527602196,-7.971750259,-198.5308228,-37.27467728,-18.69210815
1254,2.998236179,1.32657361,-7.890232086,-185.3661804,-10.84166908,-34.1939888
1255,4.508659363,2.768882275,-9.35710144,-152.7124176,-12.97721481,-35.18127823
1256,5.106249332,3.680724621,-8.856229782,-137.4755707,-28.25652122,-32.07249069
1257,5.406907558,4.000698566,-7.583111763,-140.5346375,-52.21229172,-41.26697922
1258,4.358829021,2.221232414,-7.007024288,-122.7446518,-78.27478027,-48.79367828
1259,2.397923231,0.768338084,-6.10575819,-90.57518768,-107.0255356,-52.72786713
1260,0.207590774,1.297110319,-5.468521595,-39.73611069,-100.3467255,-45.61290741
1261,-0.358612537,2.095056057,-5.4508605,21.3003006,-79.31797028,-34.28874207
1262,-1.52524364,4.194068909,-5.538243294,68.94741821,-80.21525574,-37.80803299
1263,-1.154412031,5.645661831,-8.137795448,118.8389511,-70.78416443,-34.11619949
1264,-0.025667541,4.955074787,-8.919261932,142.0805664,-63.21600342,-20.88863373
1265,1.288960695,4.576301575,-8.126310349,146.5377655,-41.17084122,-8.763448715
1266,1.574794888,1.960773706,-6.193886757,139.1065979,-15.69508457,0.927211761
1267,0.917386055,1.809189558,-8.122293472,164.0588531,25.72538948,2.882380962
1268,1.457992911,2.960309267,-9.963681221,216.1331635,43.6578064,15.75545216
1269,2.03384614,3.887351513,-11.12694836,246.8694916,36.6886673,28.87960052
1270,2.555294991,4.402230263,-10.71753502,254.499649,34.83404541,29.33885002
1271,3.355806351,4.424332619,-9.989064217,232.5365295,28.14841652,26.41218948
1272,3.841668844,4.385693073,-9.31992054,168.744278,23.91765022,21.47188187
1273,3.525300741,4.090417862,-10.44312191,89.02539063,20.06565285,15.92508316
1274,2.115047693,3.592175722,-11.5966711,18.8236599,12.94386578,14.19593239
1275,0.714955151,2.557311058,-11.69403458,-31.02144623,31.42785263,16.21190834
1276,-0.259501427,1.464373946,-10.58166885,-56.80289459,50.19002533,17.75539207
1277,-0.054772899,1.356555343,-10.58656693,-67.79405975,61.36018753,18.87539101
1278,1.624849081,1.955725551,-10.38710594,-75.76718903,50.9107666,15.89872551
1279,3.614238739,0.77657938,-9.562378883,-73.34505463,24.17676926,14.49517632
1280,3.438889503,-0.784574449,-6.258275986,-69.03573608,29.65535355,5.361798763
1281,1.857338309,-0.603265762,-6.494383812,-49.97457123,43.51873779,5.900061131
1282,1.014569998,-0.114702351,-8.730922699,3.69009161,21.34151459,21.96349716
1283,1.389686704,1.205111384,-9.496527672,56.7179718,8.006581306,38.58532715
1284,3.448296785,0.887121737,-8.87987709,99.48751831,12.26562691,40.65059662
1285,4.300845623,-2.038456202,-8.183127403,97.43070984,27.16227531,18.20005798
1286,4.234426498,-3.885944366,-9.761745453,90.53855896,33.74596786,-9.469054222
1287,3.812008381,-3.74853611,-11.99440193,83.7896347,37.08577728,-18.27676201
1288,2.038983107,-2.672332525,-9.455298424,105.2116165,56.44401169,-10.55778313
1289,0.869146407,-2.697551727,-6.798282623,137.085495,42.62608337,0.493009895
1290,1.12017262,-3.872970819,-6.720160484,152.1419067,11.05933762,3.572592497
1291,1.190813065,-3.761287212,-10.23565483,123.5663986,-20.02633858,10.08698845
1292,0.910015702,-3.432397842,-11.66956043,129.6247406,-37.26356506,14.65282917
1293,0.841581047,-2.700353146,-9.944446564,152.4404602,-29.74269485,17.04666138
1294,1.390115023,-2.004635811,-9.139414787,172.6266327,-23.31352043,16.74636269
1295,1.665492773,-3.356503487,-7.95793438,181.2325134,-10.74704742,20.15515518
1296,2.505620241,-3.506106615,-8.855772018,200.1152954,-2.017507076,25.48683739
1297,2.499712706,-3.594258547,-9.094353676,225.5080261,7.701134205,29.19126511
1298,2.747590065,-3.903716087,-9.58659935,237.5199432,17.11305809,28.4314785
1299,4.083898067,-3.573317289,-8.367394447,232.1883698,6.166413307,30.40923119
1300,5.895031452,-3.400612831,-7.945850372,204.6315765,-11.73689175,30.01937866
1301,4.950254917,-2.917703629,-8.910637856,187.1186066,-19.09497261,20.62174225
1302,3.466470003,-0.860361636,-9.370700836,179.1947632,-24.2245369,22.61969376
1303,3.520526171,-1.315184116,-8.18377018,142.7244568,-31.960186,41.43432236
1304,2.10043335,-2.274173975,-6.137715816,68.89335632,-25.86481857,58.07580185
1305,-0.668727696,-3.139696836,-5.082560062,-1.540817857,-57.94483185,64.96291351
1306,-0.946639299,-4.649879456,-7.357895851,-43.6267395,-63.79376984,48.33116913
1307,0.79564625,-3.777211666,-8.501105309,-94.99703217,-39.26513672,25.53288651
1308,1.269576073,-3.761790514,-7.524740696,-170.4338837,-50.27624893,12.6318779
1309,2.938751459,-1.747599125,-4.665759087,-200.6819,-55.7582283,-12.01642227
1310,3.117750406,-1.030694604,-7.888530254,-191.6426239,-46.5160675,-22.32048798
1311,1.145926714,-6.140931606,-7.463389874,-184.6332855,-20.62285995,-0.673836827
1312,0.987103164,-6.856128693,-9.641654968,-158.7906647,1.069604635,6.879300594
1313,2.548118591,-6.989159107,-10.10395241,-133.731369,5.090514183,-10.10093784
1314,5.619606018,-5.198781013,-9.710877419,-116.4369965,-7.052979469,-26.63415909
1315,5.729780197,-2.729142666,-9.316972733,-121.1387329,-3.928413153,-26.99496269
1316,2.561840057,-0.613682926,-10.86708069,-88.03579712,-25.12817574,-20.61204147
1317,1.559718251,-2.035813093,-11.58385372,-82.65944672,-6.725348949,-18.5504818
1318,0.600739121,-3.648691893,-10.86172295,-69.28829956,19.86616898,-21.73694038
1319,-0.774070859,-3.79130578,-9.184886932,-48.62623215,22.62020493,-29.12491035
1320,-1.337576509,-3.051302671,-8.727860451,-25.26567268,23.71377754,-34.13529587
1321,-0.117760934,-2.679381132,-11.61390877,-4.209888935,25.57585335,-32.36512375
1322,1.697734952,-2.88360548,-11.40224648,-7.141273022,23.15749359,-24.79037857
1323,2.242667913,-1.809646249,-10.62027168,-7.545240879,25.68876266,-24.26037025
1324,2.165840149,-0.430771887,-8.445590973,-28.51995659,31.53980637,-24.859272
1325,1.842419863,-0.644760728,-8.254473686,-54.29904938,42.71933746,-23.32112122
1326,1.678408504,-0.608417213,-9.483080864,-31.89756775,46.19327927,-14.25661182
1327,0.778689563,-1.063721895,-9.614561081,-20.48604774,31.03933144,-6.994644642
1328,2.094231844,-0.309121698,-10.01871586,-14.52200031,35.09645844,0.321447372
1329,3.843400002,-0.58965677,-9.802911758,-23.0182972,30.77491951,8.136091232
1330,4.270290852,-1.868061423,-9.638567924,-42.56349945,33.71816635,7.529285431
1331,3.637842178,-2.42262578,-10.075284,-57.82722473,50.222332,-0.091452047
1332,2.156448364,-1.204633355,-10.07020092,-66.48808289,57.2903862,0.210843086
1333,1.370162368,0.437222302,-8.815470695,-85.78554535,55.90411758,-0.268206865
1334,0.044973534,2.324806452,-7.653258801,-117.7656326,65.98323059,-4.863632679
1335,-0.701054037,3.628690004,-5.826575279,-160.9628143,52.40480423,-10.76545525
1336,-0.467365682,4.610440731,-6.940761089,-221.8773499,22.26796913,-15.68432903
1337,0.717742205,5.137533188,-10.28834915,-210.7048492,-3.849389315,-18.23990059
1338,2.182851553,3.799254894,-12.25153351,-174.8269806,-20.16395378,-23.59361839
1339,4.499321938,1.364682436,-11.60471344,-190.5516968,-31.72970963,-38.35620117
1340,5.041174412,-0.123215765,-9.17368412,-217.5609894,-12.45282173,-52.74475098
1341,3.339454889,-0.07455723,-6.516230106,-256.5849609,-0.151189968,-53.53805161
1342,2.969233036,0.604087412,-8.930145264,-189.3999939,-4.840400219,-38.13251877
1343,4.232688904,1.550547957,-9.026899338,-118.5173035,-5.416920185,-36.95974731
1344,5.042058945,2.284652948,-7.179804802,-111.7720261,-18.03989792,-41.24328232
1345,4.061214447,2.981629372,-7.053192139,-136.8884583,-39.06415939,-51.14379883
1346,2.3689394,4.693080425,-7.872217655,-142.6815033,-53.27284241,-57.84007645
1347,1.823907495,5.901422501,-8.524909019,-129.6366882,-53.63189697,-46.09810257
1348,1.704539895,5.034401417,-8.177386284,-102.1552048,-70.64146423,-29.35392952
1349,1.445462704,3.025782824,-5.784398079,-66.49850464,-85.32704163,-27.43766022
1350,0.005403657,0.939109743,-4.730514526,-13.89026165,-90.65575409,-40.86418152
1351,-0.472093761,-0.607077539,-7.791548729,71.04030609,-86.65871429,-32.66982651
1352,-0.340324312,0.332315862,-8.169750214,145.7107697,-70.41995239,-16.00639343
1353,0.768855453,3.682113647,-7.614768982,192.890564,-41.91571045,-15.07793522
1354,1.711941481,3.210394859,-7.108805656,194.0163269,-17.88344574,-9.269724846
1355,1.160161018,1.823078752,-8.128455162,160.987915,19.02693748,-8.147630692
1356,1.80365777,2.717222214,-9.603526115,188.6100922,42.30298615,6.551279545
1357,0.650589705,3.51433754,-10.30114555,224.8695221,43.64994431,20.55327797
1358,1.020392776,3.981892586,-10.69346523,243.2749481,12.24663925,28.91977882
1359,4.004895687,3.82144165,-11.30575848,233.3599396,-1.249724388,41.03974915
1360,5.785351276,2.709256172,-9.673046112,191.0335236,4.584039211,47.71617508
1361,4.227564812,1.557761669,-8.736442566,139.4166412,8.978447914,32.60884094
1362,2.022331238,2.188481808,-10.04245949,109.4379959,12.41248512,18.85593987
1363,1.708317161,3.540912628,-11.50358105,82.50205231,-3.211019278,22.45471764
1364,0.002269303,3.657371759,-11.56129169,43.61445618,-10.24639988,30.09208298
1365,0.011772159,3.475117207,-11.44085884,-22.95742798,1.276416779,34.75625229
1366,0.887022734,2.606453896,-10.99318886,-80.31755829,32.219944,32.29331589
1367,1.085129023,1.101815939,-10.17616844,-98.12023926,55.71404648,25.62127876
1368,2.67015481,-1.229233503,-8.621188164,-99.61418915,59.0128746,17.04208565
1369,3.795157194,-1.425806284,-5.854537487,-109.1448288,77.78601074,0.506132603
1370,3.794169903,-0.952615261,-7.75253582,-76.33837891,67.87386322,-1.498013735
1371,2.411278248,-1.474216461,-8.734184265,-0.938730419,58.75211334,15.39575386
1372,1.188549638,-1.161650777,-7.741514206,58.52895737,35.32487869,28.93851089
1373,1.761435032,-2.333183765,-7.638488293,66.27374268,15.83576775,22.044384
1374,3.08723855,-2.689946413,-9.658846855,54.62942886,47.72860718,-3.868652105
1375,4.661483288,-0.381864429,-12.23071671,57.94755936,47.92819595,-25.99056625
1376,3.140566111,0.740958452,-11.87714481,67.6962204,40.9812088,-25.27915955
1377,1.771088958,-0.533812404,-8.660037994,79.99452972,52.89561462,-17.56232071
1378,1.623078227,-2.889206648,-6.660716534,106.0007248,36.50875473,-3.812478065
1379,1.522749901,-4.010977268,-7.922320843,144.0206451,9.262098312,2.365794659
1380,1.656819582,-3.947344542,-11.11984634,171.8146057,-14.57149029,8.581553459
1381,2.677064896,-3.79625392,-9.623987198,177.0032043,-34.15917587,13.63419819
1382,2.543834209,-2.141373158,-8.879938126,182.1388855,-43.6404953,19.89404678
1383,2.263349771,-2.37486434,-7.043128014,179.3362274,-35.42707062,33.15130234
1384,1.695991755,-3.104036331,-7.782418728,190.8236847,-43.43405533,46.87746048
1385,1.906284094,-3.163372517,-8.698896408,225.5823212,-40.54138565,51.48973846
1386,0.820728004,-3.457090378,-9.120654106,246.7933655,-36.78702927,45.34267426
1387,1.749513268,-3.859038115,-9.254417419,245.0945892,-28.99686241,38.54823303
1388,3.950132847,-3.989922523,-7.719632149,219.440506,-22.71350479,33.48579407
1389,5.31847477,-4.312439919,-7.482810497,188.6255646,-28.02269363,31.49662209
1390,4.416109085,-5.842116833,-8.099901199,167.0274811,-23.16096115,29.203228
1391,2.242049456,-5.186644554,-7.800732613,146.3167572,-29.5114994,24.42181015
1392,1.574350834,-3.979437351,-7.288890839,125.6904297,-41.2077179,30.88711929
1393,1.003587842,-3.787478924,-6.62851429,65.1428299,-39.71146011,33.82627869
1394,0.5720222,-2.55411458,-7.068994045,2.439527512,-38.89233017,29.63466835
1395,0.589613438,-1.893984675,-8.297232628,-17.41896439,-27.25071716,33.56896591
1396,0.754743278,-1.686568856,-7.688379765,-39.19816589,-8.283766747,31.89588737
1397,0.755224645,-1.948882699,-6.769384384,-113.3861465,-19.08896446,19.76921463
1398,0.595026135,-2.724790812,-7.528287411,-172.9392395,-24.02051163,-4.095623016
1399,2.329386711,-2.458996296,-6.206336021,-191.7220001,8.681637764,-29.28540993
1400,2.043326616,-2.862300158,-6.64809227,-175.6384735,28.02612686,-26.69960403
1401,0.79304117,-6.178486824,-7.889827728,-142.9131622,0.56601733,-1.060461283
1402,2.516818523,-8.032203674,-9.20977211,-112.4724655,-6.946251392,5.530990124
1403,5.247553825,-7.188655853,-9.740945816,-101.3596115,1.494465709,-6.434662819
1404,5.599542618,-4.773940563,-10.22587013,-105.6145706,0.717818558,-17.44094276
1405,3.437957048,-2.506086111,-10.20947075,-82.14083862,-10.05792427,-16.31382942
1406,1.244544268,-1.392748952,-10.72237015,-72.79068756,-15.30345726,-11.49310875
1407,1.193424821,-2.088301182,-11.83038044,-79.63957214,6.405107975,-12.32986355
1408,0.506368995,-3.074798107,-10.25558472,-92.37806702,42.79171371,-20.26807594
1409,0.14961949,-4.98309803,-7.552444935,-111.2981567,60.56702423,-29.80547142
1410,0.56883496,-5.113717079,-9.984998703,-98.82492065,43.63432312,-32.45783234
1411,1.261286855,-4.72477293,-11.68785763,-71.26352692,16.77030754,-40.06144714
1412,1.385807991,-4.201789379,-11.64794731,-44.38857269,12.9652586,-38.73705673
1413,2.3601408,-2.779511452,-10.41055393,-35.85766602,18.93354607,-27.06969643
1414,2.226467848,-1.793904543,-7.784276009,-64.73048401,20.30418777,-18.35850525
1415,2.254380465,0.800675035,-9.450119972,-74.68347931,36.81339645,-11.7672987
1416,1.581922531,1.719796896,-8.74409008,-51.83644104,42.70233536,-11.58757401
1417,0.145740792,0.605730891,-8.692903519,-37.68268585,37.18270493,-24.98432159
1418,2.169639111,-0.290657371,-9.486333847,-39.60733032,34.58368301,-20.43502617
1419,4.625073433,-2.100111961,-10.25116158,-31.79327011,29.95518112,1.949888587
1420,5.063230038,-4.100859165,-10.40414619,-34.14756393,37.18301392,13.45898819
1421,4.335321426,-3.380677462,-11.14683914,-31.40394402,42.77183533,5.769260883
1422,2.843163013,-1.071467996,-10.40019894,-35.61823273,48.84022522,-3.181803942
1423,1.609935164,1.989881277,-8.74495697,-67.23551941,59.97502518,-8.039980888
1424,0.657323897,3.253353596,-7.77247858,-125.9856415,67.18392944,-15.10573864
1425,0.125569716,2.978757858,-6.933185577,-182.4729004,62.24085236,-22.54516602
1426,-0.136813104,3.902178764,-6.360407352,-240.7879181,46.09656525,-34.59167862
1427,1.020368695,5.283818245,-8.222602844,-231.9960175,19.35008812,-33.14942551
1428,1.917353272,4.556574345,-9.014424324,-189.5791473,-1.684484482,-30.81563568
1429,2.588828325,3.062983036,-8.813551903,-169.2469635,-23.23452377,-35.46010971
1430,3.35602212,1.353396416,-8.824207306,-159.3565216,-32.99589539,-37.97533035
1431,3.325939417,0.877872765,-7.984697342,-187.1935272,-37.33605194,-41.08591461
1432,3.183870077,3.128391266,-7.821422577,-196.8905029,-40.59062958,-38.09265137
1433,3.60253334,4.358603954,-9.03571701,-177.828064,-42.20385361,-31.95714378
1434,4.587814808,3.891547203,-8.510027885,-163.2943573,-39.53556061,-33.28336716
1435,5.674228668,3.517896891,-6.952063084,-168.1650848,-47.88120651,-37.39287949
1436,5.1322155,3.013800383,-6.946793079,-170.6736755,-63.26693726,-51.4852829
1437,3.519518614,2.864827871,-7.70153904,-144.5330048,-63.91502762,-58.873806
1438,1.224309206,2.57981348,-7.92872858,-105.7456207,-75.91317749,-51.90031433
1439,0.030013479,2.999448299,-7.041260719,-62.32474518,-86.25505829,-42.75013733
1440,-0.749152362,2.759745359,-3.934136152,-13.35007095,-85.54184723,-42.08787155
1441,-0.457218945,3.179617167,-5.18817997,35.93950272,-73.11135864,-46.19906616
1442,0.021644659,1.672188878,-8.17756176,93.04853821,-65.29827881,-36.1972847
1443,-0.235389829,3.782018423,-8.596953392,149.4566498,-60.81658554,-23.08869553
1444,1.380810618,5.479660034,-8.119952202,194.6968689,-39.46567917,-2.406993628
1445,1.186390042,3.15400672,-6.666805744,179.5952911,-8.419993401,2.456518412
1446,0.608600438,3.340007544,-8.84929657,192.5649414,25.25054359,-7.714930058
1447,2.610651016,5.815586567,-10.6021347,216.5565186,27.81846046,-1.077925205
1448,2.620432138,6.096141815,-10.35645962,215.029007,21.88212395,9.928255081
1449,2.934355021,5.810337543,-10.07737923,204.6337433,12.16790009,11.79236221
1450,4.626193523,5.16512394,-9.03218174,186.671402,-12.68405533,18.67397881
1451,4.205121994,3.446280479,-8.767605782,153.1880035,-18.80666733,27.75782204
1452,1.204298139,2.123704433,-9.777996063,118.7461853,6.482708454,25.86307144
1453,0.609579027,2.807028532,-10.95278645,85.43734741,23.22915268,32.46088409
1454,1.106705904,4.418056488,-11.15683842,52.21824646,18.30139923,44.60375214
1455,0.573673368,4.026738644,-10.60482979,20.58651924,26.59833908,41.52248383
1456,0.231102556,2.814928532,-10.67217255,-20.86517715,42.89826202,28.64324379
1457,0.7150051,2.350108147,-10.92652225,-38.27947235,50.0250473,23.81681824
1458,2.045967102,1.294988632,-9.683304787,-37.12237167,52.56199646,25.67455482
1459,3.155598879,0.526467323,-8.014003754,-46.20174408,55.26186752,20.6679821
1460,3.29143405,0.762349606,-6.400403976,-60.77701187,62.31350327,12.96016121
1461,2.729223251,0.677065134,-8.574342728,-36.27750397,49.55364609,25.2711792
1462,1.886881828,0.850543082,-9.833569527,8.37286377,55.07590866,46.44693375
1463,1.57862556,0.838731349,-9.569865227,32.75974274,59.38479996,52.63750076
1464,2.574501514,0.311628401,-9.746622086,35.20481873,48.99946594,45.33399963
1465,3.944873333,-1.705088496,-10.21514702,40.08379364,48.24047089,29.85105133
1466,4.759102821,-3.619033813,-9.851620674,75.49482727,35.88713074,6.357006073
1467,4.535518646,-3.982169628,-9.406066895,113.5518112,43.87530899,-6.33257246
1468,2.705598116,-2.351108074,-8.219189644,131.2042694,62.41930389,-5.308019638
1469,0.914438963,-1.253537536,-6.857188702,151.5009918,50.85934067,6.28989315
1470,0.417601675,-2.893962622,-7.097621918,162.9131165,10.99100494,10.63220119
1471,1.344658852,-3.240478039,-9.119973183,160.6772919,-22.67045784,3.777039528
1472,2.435456991,-2.966238499,-10.94583893,152.8855133,-38.91434097,6.542711735
1473,2.310140848,-2.52879715,-9.342222214,155.8637238,-39.93458557,14.91216469
1474,1.605947375,-1.966305256,-9.250658035,172.2515869,-57.51140976,32.20782089
1475,0.922986209,-3.359959841,-7.827573776,187.7564697,-55.16754532,42.58626938
1476,1.159480572,-4.21030283,-7.927728176,201.3715973,-38.61722183,39.30279922
1477,2.062329769,-4.556982994,-8.140707016,231.2005615,-30.9380722,34.2882843
1478,3.142708063,-5.148105621,-8.773975372,248.2222443,-18.75030136,34.90224838
1479,4.255037308,-5.365027905,-8.888796806,246.1748047,-17.70110321,43.29137421
1480,5.642393112,-5.228167057,-9.045354843,244.4609222,-20.91220284,36.56881714
1481,5.943273067,-4.38092804,-8.393334389,225.4316559,-30.90797997,27.90745544
1482,5.207669258,-2.3147614,-9.60607338,210.5163879,-37.39766693,31.2891922
1483,3.013908625,-0.456057549,-8.972583771,164.0283813,-9.163396835,39.289711
1484,0.83381927,-2.323474646,-5.784175873,57.75841522,2.062142372,43.69378281
1485,-0.952894747,-3.936798334,-5.689794064,-40.7033844,-25.57541275,42.73680496
1486,-0.796697497,-4.065606117,-7.109199524,-79.71361542,-41.19658661,36.09456635
1487,0.744437397,-3.392754316,-8.171403885,-106.8914108,-30.23490906,15.833601
1488,2.142604351,-3.87990427,-7.538840294,-150.7902832,-37.00270844,-11.55020714
1489,3.402435064,-3.763925314,-5.065375805,-181.8106232,-37.42908859,-31.66790581
1490,2.395706177,-2.571532488,-5.786527157,-188.4986725,-12.93493462,-29.48827744
1491,0.020181756,-6.331056595,-7.449977398,-173.6727142,-4.951864719,-1.332853675
1492,0.75600189,-8.913378716,-8.743100166,-120.8407745,2.476965904,8.285420418
1493,3.628134012,-8.288240433,-8.155478477,-90.06946564,6.345984936,-16.39600945
1494,5.597383022,-5.739541531,-8.659280777,-91.21379089,-17.8273201,-42.74560165
1495,5.54006052,-4.081390381,-8.053052902,-78.53662109,-34.07570267,-38.71181107
1496,2.779776096,-2.641859293,-8.237021446,-70.64030457,-47.2791214,-33.24155045
1497,1.099950075,-1.342857122,-10.021945,-73.11665344,-31.49939919,-30.15365982
1498,0.357855886,-1.610761642,-11.09433651,-56.29529572,-7.730472088,-20.82507133
1499,0.677485883,-3.24093914,-10.37863255,-22.02305603,3.990796804,-19.18623734
1500,-0.114931069,-4.868890762,-8.733478546,-16.38770294,6.272925377,-27.22578239
1501,0.11388655,-5.252435207,-10.32399654,-16.69064903,13.6319685,-33.72859192
1502,1.105360985,-5.013235569,-11.18759155,-15.3063736,19.44733047,-36.2447052
1503,2.470800161,-2.977770329,-10.58654785,-22.43657494,22.71760941,-36.23218918
1504,3.37993598,-1.93862021,-9.913955688,-30.21651077,12.79307365,-33.85639954
1505,3.082586527,-2.026621342,-8.20486927,-47.39420319,16.14795494,-29.96060753
1506,2.120256186,-2.642610312,-8.237174034,-68.32923126,15.15034485,-30.9313755
1507,1.690832019,-1.59159708,-9.691261292,-63.80080414,15.32011414,-33.77918625
1508,0.899847388,-0.791617215,-10.3956604,-51.19965363,8.895263672,-39.57026291
1509,2.0827384,0.504959047,-10.40175343,-44.00858688,4.19794178,-34.20328522
1510,3.769167423,-0.003404379,-10.14146805,-55.62791824,0.990109026,-17.9691925
1511,4.365375519,-1.915851831,-10.03318691,-72.42166138,5.61329174,-15.33606625
1512,3.41390419,-3.183444262,-9.234903336,-100.6359634,23.97704887,-18.04210854
1513,0.725672722,-2.441863298,-8.478046417,-139.2121277,43.8928299,-18.12325096
1514,-0.360993922,-0.376851797,-8.015850067,-157.5657654,45.23131561,-14.01979542
1515,-0.074617647,1.495134354,-7.302656651,-174.1434326,35.21733856,-10.45167255
1516,0.447048247,2.019323349,-7.050367832,-189.6439819,24.81505394,-6.939389706
1517,-0.197409809,3.398723364,-7.731003284,-201.5196991,16.07034302,-10.54478645
1518,-0.237338662,4.97968483,-8.687392235,-190.0406036,-11.34319401,-12.29127979
1519,0.846344888,5.26938343,-9.40344429,-185.9706268,-38.89671707,-13.69420815
1520,1.799162388,3.742857933,-9.799747467,-210.8632965,-56.7241745,-12.73294067
1521,1.947878718,2.657565832,-9.539574623,-236.6978607,-62.26873016,-11.59289074
1522,2.71186924,3.124507427,-9.336925507,-246.2559509,-49.9889679,-13.88190269
1523,3.003144264,3.660907269,-9.064728737,-233.0929718,-42.62681961,-14.24832249
1524,3.265897274,3.795846462,-9.033246994,-198.1504364,-33.28832245,-12.33737755
1525,3.531473637,3.559785604,-8.23436451,-178.8492889,-39.84220886,-18.54573631
1526,3.165658712,2.538500071,-7.352910042,-175.8403015,-61.64068222,-26.78419876
1527,2.094976664,2.358356953,-7.39139843,-161.9290924,-73.40200806,-36.27991104
1528,0.548423767,3.224540234,-6.586253643,-109.3883667,-74.30989075,-42.77922058
1529,-0.334989727,4.301509857,-5.581298828,-70.24812317,-83.12355042,-27.08282471
1530,-0.588848472,5.115216255,-6.4868536,-66.49549103,-86.74555969,-25.70130539
1531,-1.038408518,4.936059952,-5.748497009,-5.931589127,-95.24978638,-32.40134048
1532,-1.107290387,2.934874296,-7.128173828,92.62406158,-91.0059967,-23.27595901
1533,-1.517733574,2.072451591,-7.567576885,179.4506836,-74.35721588,-8.516101837
1534,0.06714803,2.467050552,-7.621109486,227.9589844,-67.9389267,1.605679631
1535,0.639140069,1.065233707,-7.044395924,221.613739,-56.57609177,11.66813469
1536,-0.245359659,1.590368032,-8.307670593,169.6949615,-8.930664063,5.973676682
1537,0.558993816,3.888684273,-10.07805443,133.7100677,30.11120415,-20.15036201
1538,0.866232872,5.846380711,-9.885525703,147.0010376,52.22923279,-27.42751884
1539,1.473834991,6.759303093,-9.754834175,172.3913269,54.19910049,-3.787401438
1540,3.090945721,5.854336739,-9.791742325,180.9801483,47.94669724,10.5905571
1541,3.515216827,3.407989979,-9.658195496,150.3244629,14.19015694,14.17946339
1542,2.726687193,2.259994507,-9.70379734,109.9157867,12.2563324,12.37670422
1543,1.0968436,2.664855719,-10.16092587,97.41295624,49.53324127,16.01882553
1544,0.152745575,3.639791727,-10.29107571,84.35063934,53.23674393,28.88196754
1545,-0.353139967,3.769859552,-11.72438145,56.90671539,40.00339127,37.66103363
1546,-0.467906356,2.976257086,-11.87963295,19.68867111,39.33763885,33.091362
1547,0.149448335,2.226596117,-11.72590256,-16.68241119,47.48812103,28.23233223
1548,0.503391027,0.560803354,-11.21867275,-31.15033913,57.11219406,29.83571053
1549,1.235968232,-0.395108819,-9.676164627,-35.61520004,78.51532745,26.75788689
1550,3.348036528,0.409327298,-7.153158665,-37.50941086,100.1176071,15.71215057
1551,4.022325039,1.392822742,-6.268563271,-25.5974617,106.3283615,2.027618647
1552,2.631305218,1.88010025,-9.027565956,28.72050095,79.04819489,6.771149158
1553,1.204884648,0.943241239,-9.77720356,71.49242401,48.47768402,29.09593964
1554,1.720408082,1.025570154,-7.872291565,91.48549652,18.40409851,44.1769371
1555,2.826123238,-0.187497288,-7.094020844,112.2916794,-9.74169445,35.64069366
1556,3.597733259,-2.57437849,-9.165748596,131.3338776,-19.21257591,3.865484953
1557,3.498621702,-4.110237598,-11.6375227,151.6152802,-1.654780507,-18.3086319
1558,2.313543081,-4.973548412,-10.15260696,110.378006,44.9094696,-21.74173164
1559,1.347891688,-3.907459736,-8.078874588,77.11942291,67.57489014,-11.49462128
1560,1.307816267,-2.96750617,-6.808160782,117.2083664,41.2782402,-7.010386944
1561,1.0208987,-2.900676012,-6.999164104,177.5211487,-0.578949809,-5.028882504
1562,0.52480638,-4.012338638,-8.460849762,191.1399841,-36.17202759,4.288125038
1563,0.283113152,-4.254871845,-9.450534821,165.5695038,-51.83905411,13.11317444
1564,0.560772657,-2.944963455,-10.080369,157.9812927,-46.0148201,19.12671661
1565,1.189301133,-2.391485691,-8.629130363,157.4730988,-37.15574646,24.763237
1566,1.440366745,-2.805830956,-9.344429016,158.7254944,-24.82760048,28.90029335
1567,2.230737686,-3.223130465,-8.401438713,179.9142914,-11.2149868,26.36870003
1568,2.065743208,-4.730662346,-7.943698883,196.7759399,-13.358181,28.86676407
1569,2.395149708,-5.775519848,-8.848298073,207.6814728,-7.778594494,33.48567581
1570,3.180161476,-5.582289696,-8.986626625,209.3471375,1.183897376,32.7540741
1571,3.771762848,-4.847117424,-8.424760818,204.909317,-1.521980882,22.678442
1572,4.261354923,-3.02951479,-8.344228745,181.1355896,-18.76644516,16.22387314
1573,3.927893162,-2.100143194,-9.596344948,161.3012848,-30.2343483,22.37891197
1574,2.559565783,-1.335286379,-8.472169876,111.190361,-14.27085876,35.02468109
1575,0.993841887,-1.532531023,-6.795174122,12.67625523,-8.004682541,46.53134155
1576,-0.567943454,-2.543245077,-7.701181889,-45.38265991,-15.7481842,51.68406296
1577,-0.098520994,-3.837720156,-7.969633579,-61.61235809,-15.95706749,41.12231827
1578,0.777083397,-4.10904932,-7.790680408,-98.73152161,-15.98787785,30.37957573
1579,1.020570517,-4.352929592,-7.664885998,-146.417984,-17.86226463,20.50693893
1580,2.17939949,-3.865600586,-6.133726597,-169.5675201,-12.73582458,-4.380084038
1581,1.744064212,-2.736881018,-6.267929554,-169.9877319,-5.660727024,-18.16893959
1582,-0.410176069,-4.845376492,-7.35469532,-155.6793213,-10.82186508,-1.278433204
1583,0.200267419,-6.749060154,-8.775112152,-121.2111206,-10.39573956,14.09572315
1584,3.083236694,-7.029248238,-8.785819054,-101.8778152,-0.198588908,0.397331506
1585,5.319111824,-5.409321308,-10.33617973,-94.61803436,-2.565100431,-18.93099976
1586,5.502534389,-4.038283825,-9.914260864,-82.84383392,-0.828317583,-27.21911621
1587,2.09193778,-3.077861547,-8.546794891,-68.69985962,-10.38416767,-23.41545486
1588,0.672639251,-3.090712309,-8.780596733,-65.60977173,-3.935628414,-28.24328423
1589,0.553390801,-4.054358959,-9.105872154,-50.85539246,20.55121422,-29.79987717
1590,-0.584401548,-5.563296318,-8.188482285,-22.65463257,22.2942543,-31.20044708
1591,-0.238526285,-5.800260544,-9.435255051,-1.284500837,-3.81256032,-32.93836975
1592,0.70052743,-4.819699764,-11.14750481,0.156679854,8.344845772,-31.20739365
1593,1.283451676,-3.588933706,-11.32100964,-0.37743029,14.9732523,-30.93362999
1594,1.798870802,-2.24621582,-10.57720852,-10.37011433,24.91572952,-29.31125832
1595,1.492116451,-2.222494364,-8.610668182,-44.95514297,26.86501312,-29.78135681
1596,1.596654534,-1.271123409,-9.797696114,-56.65058517,38.85044098,-28.45720291
1597,1.204357147,-0.627651811,-9.768200874,-41.75658417,34.61465073,-26.30717659
1598,0.797268331,-0.61506772,-9.394867897,-44.68997192,31.63300323,-21.18804169
1599,1.706783295,-0.782213449,-9.830430984,-50.86781693,38.65097046,-7.20805645
1600,2.995107174,-2.219584465,-9.914124489,-51.85346222,41.82246399,4.642573357
1601,3.978434086,-3.647887707,-9.463055611,-59.39694595,44.23929596,7.891144753
1602,3.277614594,-3.134583235,-9.080138206,-67.9274826,42.26510239,0.67721498
1603,1.895478487,-1.560234189,-9.551264763,-69.27783203,40.1538353,-3.887225151
1604,1.389532566,0.306132704,-9.353744507,-85.09687042,41.27732849,-3.933248997
1605,0.927508056,1.619388103,-8.329340935,-108.7477646,28.29197884,-4.297324181
1606,0.71987313,1.16095376,-7.713772297,-144.8186951,18.22903442,-2.194160938
1607,-0.163313344,0.304268062,-8.001566887,-190.2194061,8.858304977,-1.975747228
1608,-0.005808481,1.824866533,-9.174808502,-184.7204132,-6.525968075,-6.441678524
1609,0.460894048,3.360052347,-9.934884071,-162.4747009,-27.53178024,-12.56692791
1610,2.150905371,2.730163336,-9.871619225,-183.6699219,-42.56786346,-18.3664875
1611,3.890681982,2.708837271,-10.22725391,-225.2513428,-42.36142731,-26.83057404
1612,3.691609859,2.279856205,-9.211149216,-253.3362885,-33.18667603,-33.36635208
1613,3.417321205,1.990123987,-8.924318314,-261.671814,-38.56547928,-30.12929916
1614,3.246262312,1.895985723,-9.844759941,-226.4280548,-46.05455399,-16.60149193
1615,3.589971304,0.096451476,-9.612165451,-183.0754395,-55.28292465,-11.04075718
1616,4.390316486,-0.983442783,-9.128675461,-154.2371826,-59.68662643,-22.2432518
1617,3.300729513,1.111504555,-8.050848007,-145.0310974,-55.05588531,-40.10443878
1618,2.084162712,3.846086979,-8.32631588,-134.5871277,-47.67052078,-47.58120346
1619,1.316917539,4.236206055,-8.650648117,-107.6928406,-39.90516281,-38.52679062
1620,0.190578789,4.483409882,-7.40464592,-83.9713974,-35.8620491,-28.52443886
1621,-0.797223628,4.104871273,-4.739348888,-58.04111862,-54.65177917,-31.46298981
1622,-0.686673343,3.041277409,-5.105694294,9.387905121,-80.83049774,-26.90069008
1623,1.025218248,0.826972604,-8.095101357,88.18648529,-81.66927338,-5.6324296
1624,0.788469076,0.379612207,-7.909610271,127.0702515,-56.07655716,6.962397575
1625,-0.549433768,1.882233262,-6.424336433,181.8963928,-40.95055389,6.699086666
1626,-0.486443102,2.761386871,-5.925265312,216.8213043,0.311598182,-4.61366415
1627,1.096656442,5.009796143,-6.999328136,228.0086975,25.3321743,-8.487537384
1628,2.299628258,5.755075455,-8.600818634,235.8292847,10.75230598,3.955076933
1629,1.437088132,3.120074034,-10.93074799,214.7862396,0.783652186,9.582292557
1630,1.355644464,1.229593039,-11.60870457,197.9069977,12.47318745,5.515748978
1631,3.230052948,1.723792791,-10.44464397,187.3102417,17.42910004,5.198304176
1632,3.779067516,1.891210556,-9.230975151,161.0270081,13.45760822,7.698177338
1633,1.995377541,2.737700462,-9.565463066,123.8234253,24.68462372,8.208198547
1634,0.86194092,3.077526808,-9.498016357,68.43716431,32.66463089,11.91958332
1635,0.177273557,3.921975851,-10.78378487,7.081016541,31.38181305,17.1854763
1636,0.346447319,3.545587778,-12.1163559,-35.42795944,22.40682602,22.62919807
1637,0.05513908,2.813503265,-12.21044254,-53.52800751,23.00726128,23.95182037
1638,-0.14800635,1.204268336,-11.43271351,-71.08190155,45.77178192,29.07285118
1639,0.677327633,0.167996973,-10.10399246,-80.50541687,46.0873909,33.19367218
1640,3.473285437,0.417001516,-8.919669151,-75.75930023,45.38787842,29.93203354
1641,4.815770149,0.21185948,-7.543941975,-59.49866486,65.80921936,20.9376049
1642,2.93752265,0.090621158,-8.344247818,-23.80755997,77.90193176,20.97328377
1643,0.908308744,-0.308004647,-11.05288601,24.21245766,64.9342041,38.7205162
1644,1.054146171,-0.857239783,-10.05167389,55.05081177,66.17849731,54.20388031
1645,3.932556629,-1.644630313,-9.245534897,66.31414795,61.90003204,46.84329224
1646,5.524600506,-3.103684425,-9.820595741,80.40694427,79.10341644,21.69283485
1647,4.699861526,-3.264112949,-10.38303566,92.67484283,92.32844543,-4.447170258
1648,2.072748423,-2.890114307,-9.542790413,113.3428879,81.68534088,-6.676813602
1649,1.149799943,-2.530983925,-7.674746513,124.323143,55.13175964,1.07678318
1650,1.492012024,-2.319345236,-6.733250141,124.1605301,24.20534325,12.36593056
1651,1.773870468,-3.12639904,-6.407558441,127.0439529,-36.35679626,19.38941193
1652,2.022310019,-3.748075485,-10.68659592,123.1341629,-53.81652832,20.37650299
1653,1.960597873,-3.208088398,-11.78196907,149.7573547,-48.34924316,20.74137497
1654,1.249049187,-1.807721496,-10.38330078,179.2698212,-38.24876404,25.85229683
1655,1.64536047,-1.113859534,-8.606935501,187.143158,-27.87941933,35.83684921
1656,1.891537309,-2.121678591,-6.845336914,169.2971344,-29.123909,40.35749817
1657,2.639377117,-3.249711037,-7.048345089,160.9269562,-31.27231789,36.69617081
1658,3.295767069,-3.838977814,-8.250494957,198.0482788,-32.9411087,34.08955002
1659,3.163341522,-4.794394493,-8.399149895,230.0840454,-22.11788177,41.1132431
1660,3.342341185,-5.127347469,-7.470975399,218.6394653,-10.00037766,47.25850677
1661,3.938030481,-5.240398407,-7.526713848,194.1599121,-12.62385273,49.26896667
1662,4.380831242,-6.241168499,-8.875794411,176.0748291,-10.69598484,38.6921463
1663,3.997194767,-3.933788538,-8.40680027,167.8954773,-16.04264641,31.3483429
1664,3.168403625,-2.152458906,-7.289473534,122.960907,-15.57358646,30.4233799
1665,2.295448065,-1.955573797,-7.14099884,65.44400024,-27.00588608,37.71331787
1666,0.845650136,-3.878495693,-7.541348934,-5.601317406,-40.93824005,39.22496796
1667,0.118317403,-4.470019341,-7.914215565,-37.75984192,-58.03300858,30.87083626
1668,0.945782423,-3.341108322,-7.613461494,-61.37819672,-47.73167419,18.02047348
1669,1.346152425,-2.774077177,-6.89229393,-116.9491348,-49.39809418,7.399571896
1670,0.71626997,-4.255153656,-6.573769569,-163.3815918,-37.79392242,-7.009156227
1671,3.152348042,-4.341957569,-4.643119812,-163.0683136,1.650143266,-32.34435272
1672,2.51822567,-2.870600462,-5.95931673,-147.6033173,12.494977,-43.72334671
1673,0.415190101,-4.618068218,-7.577735424,-113.3366623,-4.668520451,-16.59346008
1674,1.091435194,-6.24152422,-7.807297707,-85.44604492,-1.12399745,5.513596058
1675,3.206393242,-6.212351322,-7.247357845,-85.40276337,-1.385426641,-6.712724209
1676,4.345380783,-4.952742577,-8.823792458,-85.70664215,-14.67763424,-22.40605164
1677,3.988946199,-3.239920616,-9.711735725,-74.61956787,-13.32030201,-31.37368584
1678,2.035054922,-2.590492249,-11.32921219,-42.62768936,-28.11875725,-27.16312408
1679,1.831359863,-3.30280304,-11.77039337,-26.42161751,-37.95828629,-26.13855553
1680,2.315626144,-3.887357712,-10.4786396,-46.0292244,-5.533254623,-30.32477379
1681,0.966858149,-4.425777435,-8.787339211,-59.22426224,14.93079185,-29.42261124
1682,0.897939563,-3.933222294,-8.266708374,-55.21112823,29.33850479,-27.77621269
1683,0.126733214,-4.704492092,-9.218517303,-47.12853622,31.78940201,-32.09443283
1684,-0.076909736,-4.828484535,-10.77620888,-22.76565742,30.06183815,-32.71414185
1685,1.396549344,-3.697163343,-10.55294991,-6.143722534,25.97947121,-31.08875656
1686,2.788429499,-1.775639296,-9.056794167,-20.98322296,15.25409889,-28.44959259
1687,3.164005756,-1.404761791,-7.641648769,-48.74970245,7.291798115,-26.88814354
1688,3.442398548,-1.814095378,-8.634518623,-49.91973495,29.34903336,-28.0358448
1689,2.93346858,-2.173909903,-10.37208271,-30.38174438,57.14430618,-34.70716095
1690,2.019767046,-1.526819348,-11.44793224,-3.490151167,81.48607635,-31.53786278
1691,2.423417807,-1.785269856,-10.2244873,-23.73443031,84.70661926,-17.09730148
1692,3.59148407,-2.236036301,-9.249180794,-73.48758698,67.21456146,-15.66213799
1693,4.22092104,-2.226577759,-9.300733566,-88.50172424,52.78504944,-21.52913284
1694,3.623768806,-1.207921743,-9.506772041,-90.24803162,52.67807388,-19.18330383
1695,2.329344749,0.531012118,-9.514110565,-88.24140167,49.58613586,-13.56896782
1696,1.844361544,1.319003463,-8.260538101,-116.4570236,39.02701187,-8.699811935
1697,1.378296852,1.799316406,-7.900945187,-159.5268555,30.6752739,-12.09156799
1698,0.258958578,2.115293264,-7.932139874,-196.8264923,28.62641525,-19.2636013
1699,-0.707246244,3.522704363,-8.292690277,-239.0265503,15.34777355,-29.03666878
1700,0.485709608,5.719105244,-10.54072857,-238.2935791,-24.36969566,-32.90903854
1701,2.03002882,4.957195282,-11.14660168,-220.8808594,-64.1957016,-28.91449356
1702,3.017838955,2.883660078,-10.5207634,-232.3592987,-76.40498352,-28.03940964
1703,3.431278706,0.944482327,-8.541475296,-244.5040894,-56.08913803,-34.60326004
1704,3.292622328,0.014346182,-7.650137424,-268.7559204,-19.05765915,-38.3282814
1705,3.467895508,1.367564559,-8.961070061,-238.9046631,-21.87177467,-30.64730072
1706,4.298600674,3.068164825,-9.813116074,-176.7441864,-46.55823135,-29.26478577
1707,5.151088715,3.559919119,-8.252989769,-155.8489838,-70.10861969,-35.86334991
1708,4.949772835,2.947721243,-7.009153366,-166.7516174,-89.61222076,-41.83334351
1709,3.973340273,2.058405399,-6.032389164,-155.0971832,-103.6869049,-53.61952209
1710,1.462987661,2.838618994,-5.952770233,-124.0102539,-110.0289001,-60.88567352
1711,-0.812460721,3.429453611,-6.52419281,-72.70433044,-100.2172241,-47.85365295
1712,-1.761151075,2.193478584,-6.590408325,-11.19899559,-95.27310181,-28.23983765
1713,-1.03712678,2.231908798,-6.722805977,43.05963135,-83.01715851,-26.58419228
1714,-0.033023782,3.352149725,-9.127134323,119.8489456,-80.44165802,-21.18185806
1715,0.812117219,3.235315323,-9.712439537,172.0134125,-80.51136017,-10.29383945
1716,0.343618393,3.325221777,-8.462944031,203.9783783,-65.23639679,-1.037123203
1717,-0.245437518,1.277212381,-6.456001759,200.5904236,-31.16747856,5.052845478
1718,-0.266452521,1.604319811,-7.702171803,191.5074158,28.67433357,0.841891885
1719,1.043714404,4.192677498,-9.953504562,214.9174042,57.97872925,0.86312592
1720,1.759806991,5.004294395,-10.58269215,226.9878235,46.51071548,2.249060631
1721,2.871251822,4.286857605,-10.50394917,214.7320557,28.80711555,2.304211617
1722,4.684844494,4.440022945,-10.03440762,189.776474,13.55600166,2.654461384
1723,4.4736166,3.064087391,-9.484514236,139.7628326,13.49668503,2.205925226
1724,1.860358119,2.129083157,-9.786862373,97.35523987,34.23781204,5.039379597
1725,0.43036294,3.014597416,-10.35168648,71.56038666,33.7696228,18.35957718
1726,0.227115259,3.483709574,-10.37047195,44.43890381,34.36739731,32.73210526
1727,-0.111508243,2.24394083,-11.13188362,6.942665577,38.51685715,35.07590103
1728,0.239533186,1.255835056,-11.72318459,-36.3327713,52.09086227,22.59928703
1729,1.340912104,1.814406395,-11.42445755,-52.23176575,58.46168137,15.06377792
1730,1.707877398,0.962644756,-10.14389324,-63.18519211,57.95882034,13.81320095
1731,2.714672089,0.23507297,-8.452982903,-83.04502106,57.62591171,2.129183531
1732,3.652989149,0.739875495,-6.982478619,-79.30548096,65.12978363,-7.565479755
1733,2.965716362,0.447877914,-8.29070282,-36.91234207,71.12908936,-3.510978699
1734,1.615691423,0.570595324,-9.857650757,23.39086533,55.21138,13.30571842
1735,1.653883219,1.152488351,-8.926119804,58.00538254,43.12434006,31.29743004
1736,2.78489995,0.014707647,-8.155747414,58.97521591,23.66755867,36.50026321
1737,3.999021053,-2.067981243,-10.10879421,65.23973846,22.69023323,18.87690735
1738,4.729131699,-3.31697917,-11.21152401,97.51138306,37.72764206,-8.847430229
1739,3.386593342,-3.434392691,-9.477629662,126.2894592,36.98967361,-19.41343498
1740,1.242188573,-3.244316816,-7.34949255,116.3733215,42.94698334,-10.04561806
1741,0.316968888,-2.458976507,-5.072971344,125.5914459,31.10807991,10.02153206
1742,0.827638209,-2.401954174,-5.535908699,200.9672089,-25.50131416,27.69435883
1743,1.475250363,-4.717917919,-8.163241386,211.2083282,-57.05074692,22.56001282
1744,0.828920603,-5.22178936,-10.12892342,190.0670013,-69.68563843,14.17508221
1745,0.947555423,-3.208681583,-11.29927063,180.9940491,-43.77651596,14.63083076
1746,1.351066589,-0.848742366,-10.10140419,165.8759613,-16.92572021,21.65673637
1747,2.04398489,-0.554903269,-8.426403999,154.6504364,-3.195944786,30.3794899
1748,3.094870329,-1.525446296,-7.898647785,146.8313751,-7.636404991,34.29841232
1749,3.292942286,-4.472757339,-7.959004402,176.8070679,-8.866260529,36.32279587
1750,2.661250114,-6.76452589,-8.916015625,201.9156647,0.673137546,35.75333405
1751,2.738647938,-6.594073772,-9.101322174,215.9654083,3.116168261,32.72778702
1752,3.621041059,-5.328896046,-9.323009491,221.9183044,-0.576214075,24.85930252
1753,4.06614542,-4.317101002,-9.162683487,211.7469482,-11.60538769,19.51756477
1754,3.279262304,-2.766914606,-8.187280655,189.0091248,-26.04941368,23.32309532
1755,2.469680786,-2.312823534,-6.454471588,122.2729416,-34.17849731,34.32912827
1756,1.090558767,-2.203870058,-6.493519783,44.58842468,-32.75879288,38.85575867
1757,0.738865674,-2.671370029,-7.131256104,9.728081703,-47.35345459,52.48123932
1758,0.833567679,-5.903427601,-8.394908905,-41.00429535,-41.38593674,42.21720505
1759,1.106212854,-4.88528204,-8.724869728,-88.97319031,-30.68140411,24.21151733
1760,0.83901757,-3.453927517,-8.036821365,-138.2201233,-39.63156128,16.61559677
1761,1.856843591,-3.027186632,-5.920280933,-180.6597748,-38.09580231,3.312888622
1762,2.676889896,-1.415334463,-5.309639454,-207.0763245,-20.41842461,-16.67079926
1763,0.991131783,-1.94805491,-7.189779282,-211.7657623,-16.41691971,-11.65181446
1764,-1.171505094,-5.723731041,-8.522930145,-194.3246765,-26.90590668,5.740931511
1765,1.057242155,-7.063293457,-9.59309864,-147.8206024,-8.036214828,0.475549251
1766,4.204658985,-5.539159298,-10.15923023,-121.5491867,1.135445237,-13.02012634
1767,5.625164509,-3.945270061,-10.06108761,-112.9633331,1.837143302,-20.37007904
1768,4.336883545,-2.736166,-9.47521019,-109.321312,9.51556778,-25.17053604
1769,1.895370483,-1.954771638,-9.21082592,-98.15303802,-0.379254729,-27.73535156
1770,0.740992367,-2.0212183,-10.68615055,-90.36187744,1.469614625,-32.29660416
1771,0.502821028,-2.743751764,-10.46907806,-71.77373505,11.0105257,-33.29872513
1772,0.34510535,-3.55426836,-9.44355011,-41.05032349,20.16741943,-28.52473068
1773,-0.075267911,-3.85587883,-8.435619354,-26.95522118,22.8609581,-26.70206451
1774,0.368830442,-3.717913389,-10.9667902,-13.48542309,29.74576187,-30.04267311
1775,0.548932314,-3.078014374,-11.26348495,-2.980908632,27.08817863,-33.73067856
1776,0.959199965,-1.101706266,-10.8584404,-6.300742149,24.87801743,-32.46508789
1777,2.185214758,-0.265230566,-10.0415535,-24.8577652,28.50547028,-26.62155914
1778,3.177764654,-0.064170495,-8.749023438,-49.10970306,33.29647064,-21.70518494
1779,2.824198246,-0.687912941,-8.793320656,-66.34040833,41.28458405,-18.78221893
1780,1.552557111,-0.306258947,-9.394823074,-54.05813217,43.20262527,-20.76112556
1781,0.239018887,-0.128505081,-9.862212181,-35.34794998,34.21617508,-26.07575607
1782,1.908016205,0.396816373,-10.5173502,-12.76781178,45.13549042,-23.79118919
1783,4.690747738,0.100867786,-9.247911453,-5.171036243,42.24682236,-15.56765461
1784,5.536388874,-1.211604595,-8.663303375,-18.42218971,34.43663788,-16.18147469
1785,3.82394886,-2.444876432,-8.952041626,-15.64489651,46.40381622,-22.726511
1786,1.633200765,-1.66207397,-9.665606499,-17.14015579,46.84981155,-29.93162346
1787,1.222619295,0.284343421,-8.325590134,-39.24069214,50.61978149,-28.35620499
1788,1.47187531,1.912321806,-6.374416351,-102.9252319,56.07416916,-19.31199265
1789,0.530843139,3.803714752,-6.181578636,-187.5936432,52.89600754,-15.87615013
1790,0.348701537,4.821305752,-9.083813667,-231.6745605,14.04368114,-21.35249329
1791,0.150686875,5.295479298,-11.75802803,-188.574173,-23.26109695,-22.49400139
1792,0.040956087,4.635399818,-11.70635891,-184.1807861,-43.69180679,-24.36898613
1793,2.7848804,2.976656437,-10.68038177,-211.0377808,-51.40827942,-27.33438683
1794,4.372610569,1.036268115,-7.930552006,-259.9797058,-31.7383976,-37.89873505
1795,3.381509542,-0.395374864,-6.859562874,-286.7102051,-19.79640198,-50.17392349
1796,2.469176292,-0.16496107,-7.979868412,-247.1603699,-22.19260979,-55.47698212
1797,3.05691576,1.972170591,-8.816415787,-178.8069305,-46.75826645,-43.98945999
1798,3.691016674,3.392227888,-7.966434956,-142.3443451,-75.48435211,-30.82785797
1799,4.4611516,2.881976366,-6.974042892,-156.7702179,-91.28128815,-37.10113525
1800,3.908759594,3.637536049,-7.912853718,-142.9747009,-98.94147491,-46.3319931
1801,2.372026205,3.750117064,-8.976345062,-109.1405258,-92.06110382,-52.3084259
1802,1.227860093,4.010675907,-7.974471092,-90.93164825,-81.37068176,-47.73715973
1803,0.015497923,4.396299839,-6.290215492,-68.3296814,-77.20217896,-28.57137489
1804,-0.472718805,3.802945614,-5.31861639,-30.36803627,-60.3964386,-16.53991508
1805,-1.066288114,3.090446234,-7.443173409,46.18313217,-58.26726532,-13.4784174
1806,-0.65025115,2.371911764,-7.427005291,104.9897461,-64.18831635,-4.081357956
1807,0.352790922,4.533699989,-7.143690586,145.1392517,-56.61906433,5.529441833
1808,0.992562056,4.648488045,-6.06084919,154.5666199,-32.20837402,16.83055687
1809,0.02818905,2.797291279,-6.943362713,139.8374329,-3.199006081,15.22092819
1810,0.65837115,2.176740646,-8.152348518,142.227066,31.26810455,10.15316772
1811,1.491902232,2.898073673,-9.371652603,184.0713806,44.06231689,14.15466595
1812,2.067787647,3.815201759,-10.27366734,223.0883636,40.34897995,18.39269257
1813,3.444404125,4.139863968,-10.97706127,238.0037842,31.71639061,23.08928871
1814,4.400218964,3.694105625,-11.04470444,232.0996094,13.58978081,30.42351723
1815,3.698255062,3.572811842,-10.53539276,199.3195648,15.37374306,25.19453239
1816,2.146179199,3.897960663,-10.74351501,171.2117004,26.30085754,17.7708149
1817,1.53808248,4.571232796,-10.80589867,142.8716278,29.09984398,23.8519001
1818,1.144002557,4.614220619,-11.55102444,83.77831268,33.2349968,41.32253647
1819,0.084454067,3.598223209,-12.6196537,13.88013554,39.46878052,45.32023239
1820,0.141305387,3.214931965,-11.87413502,-32.72790527,49.56687546,37.31459808
1821,1.133073449,2.051051855,-10.4925499,-53.60207367,50.37535858,33.89725113
1822,1.784713507,1.803103685,-9.789810181,-69.12349701,50.75590134,31.07245064
1823,3.319622517,1.109875798,-7.699507713,-88.73974609,64.83872223,17.61647415
1824,2.916605234,0.499424994,-6.314896584,-83.31781006,70.61606598,0.426309258
1825,2.683236837,0.032340039,-8.322214127,-14.42208767,43.7168808,13.59492779
1826,2.094782352,0.826895535,-7.871254921,46.9648819,21.42752266,46.80690384
1827,2.757987022,1.456057787,-6.95806694,74.5515213,-3.382061481,60.33832169
1828,3.273561001,-0.391431391,-8.744943619,79.09526062,-23.87981606,44.16898346
1829,3.936396122,-2.495514631,-10.91425514,81.27911377,-18.38450241,3.338985205
1830,3.530449867,-3.571545601,-10.65880489,93.36751556,-11.46016884,-24.31858063
1831,1.97156179,-4.427422047,-9.088256836,116.3014297,23.83211708,-26.84955788
1832,0.995053232,-4.106864452,-8.300444603,143.0322113,72.27777863,-14.33686924
1833,-0.13964732,-3.555819035,-6.668928146,177.3190308,51.005867,-5.987220764
1834,1.79263103,-3.762486696,-5.754449844,208.703064,-5.267580032,-2.195863962
1835,2.293352842,-2.906340837,-10.19543457,166.2853088,-9.90007782,3.38270545
1836,1.246177793,-2.68490243,-9.641371727,132.655304,-36.01588058,14.21393585
1837,-0.0962376,-3.064505577,-10.96507549,111.9418335,-34.48288345,21.80349731
1838,0.212888062,-2.551022291,-9.986990929,134.3965302,-35.47494888,20.01578522
1839,1.934780002,-3.891028404,-8.008879662,148.453598,-21.30990601,22.43747139
1840,3.250547886,-5.775006294,-8.143013,165.1624756,-7.505561829,30.1352005
1841,3.043740988,-6.555456161,-8.495432854,207.5311432,1.54523778,35.19269943
1842,2.374834299,-6.056731224,-9.895557404,246.2349396,10.92936707,30.05094337
1843,2.944394112,-4.385240078,-9.649019241,261.1790466,26.35221481,19.58179855
1844,3.988941669,-3.207545996,-7.815386772,244.5216522,17.56962776,24.02991676
1845,4.994939804,-3.150350571,-7.296215534,191.6485748,4.444687366,28.95981407
1846,4.234075069,-3.187157869,-7.354428291,149.5964355,-17.1266613,26.44637489
1847,3.246103525,-3.299884319,-7.999784946,119.7033997,-33.10293579,24.93621826
1848,2.541305304,-3.950618267,-7.522703648,73.65166473,-33.46113968,24.83733749
1849,1.571815848,-4.629757404,-7.299902439,-2.673808098,-30.63792419,25.92446327
1850,-0.025274647,-4.251951694,-8.609021187,-32.89749908,-27.8081131,31.98773003
1851,0.285431594,-3.251351118,-8.343784332,-42.78011322,-9.459568024,29.89626503
1852,1.204330564,-2.022231817,-7.454958439,-105.0782471,-4.704675198,12.7325573
1853,2.03074193,-1.155233622,-7.463387489,-169.6097412,-34.599823,-10.50791073
1854,3.698320389,-1.84692812,-5.445926189,-190.2495728,-38.68945694,-33.66879654
1855,2.383162022,-2.90864706,-5.778180122,-195.0128632,-19.06872559,-39.97069931
1856,0.095031776,-6.714099407,-7.523862839,-194.8920441,-13.23370266,-22.83640862
1857,1.072547436,-7.826715469,-9.261805534,-162.0960388,3.709486008,-7.493415356
1858,3.530456781,-6.693757057,-9.019989014,-136.4044342,11.08625317,-17.65506554
1859,5.024745941,-4.497649193,-8.879611015,-125.7632217,-3.590653658,-33.14136505
1860,4.750437737,-2.172098875,-8.828882217,-113.436409,-13.33324337,-35.77357483
1861,2.981962442,-0.897893548,-9.337674141,-97.44726563,-16.58717728,-32.22403336
1862,2.160123825,-1.339480758,-10.14532661,-87.01660919,-13.73111153,-30.00613785
1863,1.07003653,-3.169893742,-11.10149193,-71.60536957,8.148055077,-26.51769257
1864,1.17490232,-4.760821342,-9.638952255,-45.68659973,18.25694466,-23.95798874
1865,0.876990318,-4.510314465,-8.235612869,-36.55722046,16.8223629,-31.06501579
1866,0.732883692,-3.756379604,-9.242278099,-19.83638763,14.06804848,-32.31149292
1867,1.20565474,-4.235361099,-11.37030411,8.106822968,12.51920509,-30.54254723
1868,1.576913595,-3.528943777,-10.89541626,10.9047308,15.33645248,-30.1179924
1869,2.47273159,-2.254702091,-10.2716465,3.110983849,16.26498413,-32.00375748
1870,2.968500853,-1.68807447,-8.77487278,-17.99037743,17.76807594,-27.56164551
1871,2.517842293,-1.535578966,-8.585435867,-33.47605896,19.62285042,-23.52806473
1872,2.054792643,-0.584102035,-9.274095535,2.965065956,30.09665871,-15.09049416
1873,0.396840721,-0.580585241,-8.946317673,29.34106636,25.41229439,-16.44684219
1874,1.00595963,-0.051823914,-9.282208443,42.38378143,28.39503098,-11.89953136
1875,3.413899422,-1.116940737,-8.527916908,37.81491852,17.1906395,-5.88778162
1876,4.893106461,-2.253827095,-8.401097298,13.62004375,-6.481554508,-5.472746372
1877,4.642681122,-3.660193205,-9.17191124,-12.64379406,3.942955971,-2.188452959
1878,3.133149147,-3.45967865,-9.139982224,-33.82632828,24.33979607,-1.762747169
1879,1.341701746,-1.217846632,-9.067189217,-44.14350891,35.33716202,-1.927575827
1880,0.827152312,0.989467382,-7.847007275,-73.91975403,36.20733261,4.026156425
1881,1.308384538,2.39913559,-6.873572826,-125.4029007,39.3665657,10.07380867
1882,1.507490993,2.445061207,-6.477314949,-178.2123566,54.92670822,7.604467392
1883,0.724414468,2.243402243,-7.343642235,-226.9902039,44.91195297,-4.864833832
1884,0.491738468,3.784506083,-10.46725082,-206.6054077,-0.531402767,-8.425325394
1885,1.211735487,3.140758038,-11.85694981,-180.5221405,-45.09508896,-5.958568573
1886,3.147416592,1.32670033,-11.35743904,-205.8942871,-46.55308151,-8.379847527
1887,4.091551304,0.542190433,-9.064056396,-222.9303131,-31.72146797,-10.64386845
1888,2.940774202,0.651881158,-8.814074516,-262.4533997,-26.71512413,-8.668722153
1889,1.58644712,1.555576801,-9.638134956,-238.1590881,-23.80453873,-0.030715831
1890,2.106095791,2.594044209,-9.978842735,-213.8120728,-30.51104546,-4.499046326
1891,3.776547194,2.648798943,-10.40641403,-198.4894867,-45.71183395,-10.08895111
1892,5.308141232,1.650574327,-10.03289127,-188.6806641,-54.77185822,-17.97924042
1893,4.754020214,1.812891006,-8.271323204,-185.172699,-57.84822083,-33.64016724
1894,2.835544109,3.329959393,-7.142743111,-162.3052521,-64.60619354,-41.62436676
1895,1.662309527,4.544227123,-6.560522556,-132.4856262,-60.29771042,-28.86156654
1896,0.347163022,4.803703785,-5.961434841,-95.04707336,-59.66138077,-19.88807106
1897,-0.06000486,4.351665497,-4.908434391,-41.59529495,-68.3117981,-31.04003716
1898,-0.103209563,3.790860176,-4.486478329,8.203804016,-78.32896423,-36.27468872
1899,0.681141198,2.686298132,-7.625737667,85.36325073,-97.52832031,-17.76844788
1900,1.434274197,1.882304311,-8.30506897,154.3060913,-109.3041916,3.106667519
1901,-0.214816779,3.3665483,-8.228276253,197.0447693,-84.17751312,6.894165993
1902,-0.266309261,1.512089491,-7.477967262,194.6670837,-50.95402908,7.918356895
1903,0.981857121,0.693532705,-7.998910904,166.1141205,-1.623490691,-0.659283757
1904,2.649825573,1.556522846,-8.942142487,179.8650818,39.56619644,-8.180638313
1905,0.996745706,2.209549665,-10.30999947,205.8930969,45.17944336,-7.065654278
1906,0.847684145,2.662126303,-11.08467007,216.847229,28.52715874,0.409507245
1907,2.909157038,3.135979176,-10.76467133,208.8502045,18.82984161,9.934449196
1908,4.221705437,3.730591536,-9.714776993,178.3075867,13.23717022,15.12742329
1909,2.968436956,3.302636385,-9.509833336,137.0027313,10.26905727,12.7552309
1910,0.283345968,3.949576139,-10.3365078,94.26187134,5.865287781,17.6219883
1911,-0.974572301,4.493328094,-11.88202,39.47412109,-10.5525713,32.72700882
1912,-1.011842847,3.740137339,-12.63244724,-33.35483932,-5.310519695,36.74363327
1913,-0.783503771,1.639707685,-11.37083626,-84.0056839,33.09719086,25.36571693
1914,0.238618553,0.800295711,-10.78778267,-87.70586395,48.26661682,18.52386284
1915,1.106882095,-1.074740171,-10.96386433,-69.01935577,47.91915894,19.75111389
1916,2.175574303,-1.860236287,-7.355858326,-65.74504852,71.49112701,1.280146003
1917,2.347947836,-0.111816034,-6.515203953,-47.10995483,81.96720886,-15.75021839
1918,2.125701666,1.4271276,-8.753357887,-10.90159893,39.80862045,-1.736167431
1919,1.103920341,3.286057711,-8.462964058,-6.054578304,24.30610085,23.65684128
1920,1.134329557,3.458169222,-9.141798019,-2.181697607,-3.149950743,31.95763588
1921,2.461213589,1.571524024,-10.18218517,-13.59695053,-7.440574169,24.84223366
1922,3.83092165,-0.684493482,-10.21403408,-14.49952698,10.62711716,11.61990356
1923,3.827117682,-2.220638275,-10.51739025,13.5055809,24.01862144,-6.52636385
1924,3.817044735,-2.712879658,-10.88642216,41.65891647,37.77368546,-27.33537292
1925,3.311478376,-1.678053856,-10.80991459,77.54195404,64.54699707,-37.47053146
1926,2.104213476,-1.410826564,-8.647165298,116.5419464,90.74153137,-29.10931396
1927,1.317238688,-1.738752007,-7.149687767,144.9602203,80.84954071,-9.569285393
1928,0.910027862,-1.57482481,-8.153788567,155.6362915,52.90658951,9.299533844
1929,1.292880177,-2.284399033,-9.683217049,133.2824249,19.98295975,15.54910183
1930,1.660277963,-2.767091036,-8.320459366,121.180481,-26.66152954,13.39624786
1931,1.889290094,-2.188515186,-7.73908186,150.8873444,-52.44148636,17.30247498
1932,2.005185843,-2.539120913,-6.665610313,178.7459564,-52.02176666,24.27944374
1933,1.111370325,-3.666455507,-7.146747112,187.4030914,-41.46552658,28.3425827
1934,0.898722649,-3.522318363,-8.716858864,214.0559082,-28.70032501,25.58151627
1935,1.099865913,-3.605890989,-9.494174957,231.5045319,-16.42255402,25.49995995
1936,2.415258169,-3.610902071,-9.728793144,236.62677,-7.713153362,24.67284393
1937,4.20554781,-3.667799473,-9.773339272,231.9648438,-4.11082077,25.23826408
1938,5.214696884,-3.681041718,-8.004045486,218.239624,-20.2476387,25.4661293
1939,4.918970108,-3.729390621,-8.082770348,193.851181,-36.67898941,22.14024734
1940,4.064570904,-4.214679241,-9.598896027,178.8675385,-27.5294342,22.76627731
1941,2.458800077,-4.512309074,-9.173615456,159.9142609,-27.3421402,27.76751518
1942,1.112066269,-3.883368492,-7.517199993,108.7891006,-26.15593147,23.46413612
1943,1.013026714,-3.030791759,-6.919761181,47.38611221,-31.99737358,24.29711342
1944,0.169714943,-3.848890305,-8.302996635,-3.353745461,-40.32724762,22.81302071
1945,-0.048858255,-4.340289116,-8.910608292,-8.022529602,-22.61960602,16.74378777
1946,1.846050978,-4.076769829,-8.138049126,-5.331117153,-12.31674576,14.26503754
1947,2.795772076,-3.731254816,-7.479829788,-64.02870941,-24.03618622,19.08300591
1948,2.915899992,-2.875457525,-6.770220757,-143.5095367,-15.85211277,5.123902321
1949,3.114283562,-0.57157135,-5.292580605,-180.8192139,7.084163666,-22.74709702
1950,0.782588959,-2.655034065,-7.555253983,-182.6574249,12.88090801,-23.82096481
1951,-1.27293694,-6.685535431,-7.498347282,-153.6870728,-1.832312465,-5.077110291
1952,1.017098665,-9.265154839,-8.103441238,-113.4868774,-9.457211494,-5.903863907
1953,4.027956486,-7.1927104,-9.473333359,-100.6586456,-13.50161266,-26.89861298
1954,5.000424862,-4.077300072,-9.040703773,-89.26083374,-14.15718079,-40.00402069
1955,4.586009026,-2.370608568,-8.652828217,-69.63047028,-5.09513855,-32.33082199
1956,2.866571903,-2.080046415,-9.036277771,-60.86371994,1.109481931,-23.48926735
1957,0.794069111,-2.185215235,-10.61334038,-48.91374588,6.796938419,-23.62858582
1958,0.221217051,-3.072100401,-11.18640041,-31.03282738,7.120358944,-25.32873154
1959,0.612632036,-4.146053791,-8.925285339,-19.72249413,9.662187576,-32.85676956
1960,0.509605408,-4.634166718,-6.967636108,-20.79131126,6.126686573,-32.5467186
1961,1.091489434,-4.871631145,-9.601792336,-18.83879471,4.674090385,-31.76283264
1962,1.370926619,-4.719442368,-10.87245846,1.098418713,13.34197617,-34.75507355
1963,0.899760187,-4.186886787,-10.39533901,16.979496,20.62740326,-29.40341759
1964,1.518010259,-2.651298285,-9.921965599,22.4291687,23.74569511,-22.03861809
1965,2.116589308,-1.820572376,-7.627375126,1.288124204,21.80462265,-19.93484688
1966,2.722121954,-1.451453567,-8.330499649,-18.54758835,20.13844681,-12.93944073
1967,2.183023453,-2.564074516,-8.113365173,-15.73985004,17.11686134,-6.787526608
1968,0.53738302,-3.181822538,-9.01823616,3.948970318,15.28338337,-7.903607368
1969,1.260728717,-2.523141384,-9.411331177,21.12308693,14.02779865,-11.90375233
1970,3.630418777,-2.356430769,-9.57586956,19.48944855,21.38441086,-7.263783455
1971,4.920547485,-2.893969774,-9.293083191,16.95488358,33.14181519,0.342763573
1972,4.687031269,-3.661614895,-8.759262085,0.007568604,43.69272995,4.655741692
1973,3.128437757,-2.555727482,-9.374588013,-22.90118408,48.60184479,2.168137312
1974,1.857530951,-0.327682912,-9.712488174,-38.74803162,49.05117035,1.450633526
1975,1.577485442,0.827225208,-8.656248093,-78.28505707,43.96500778,5.529376507
1976,1.169255376,1.006271839,-7.657455921,-139.1219025,46.605793,9.46011734
1977,0.573916912,0.712934017,-7.00197506,-203.8300781,44.42070007,7.143954277
1978,0.682397962,0.913863122,-7.321684837,-252.245575,30.05771255,6.016729832
1979,0.285419583,1.794651508,-9.767284393,-237.5274506,0.359411269,4.189553738
1980,0.839531183,2.945216656,-11.53201389,-198.3882599,-27.57973671,-2.022856712
1981,2.791577816,3.104152203,-10.65407562,-218.6914215,-38.47175598,-10.25242519
1982,3.219721794,2.426342249,-9.697580338,-264.2957153,-30.47757912,-20.78891182
1983,2.908104181,-0.530246973,-9.76499176,-289.0343018,-27.86434937,-13.22245979
1984,3.09484458,-1.929246187,-10.56194115,-251.408371,-22.96980286,-3.592719555
1985,3.588544607,-0.378546715,-9.862540245,-198.077774,-19.34685135,-16.88225555
1986,4.228758335,2.380197763,-8.757234573,-174.2890472,-36.91987991,-36.77196503
1987,5.185517788,3.480685949,-8.298892021,-179.5875244,-55.32701874,-38.35788345
1988,3.983302116,3.50561595,-7.923127651,-204.3809662,-60.45616913,-36.95244217
1989,2.034080029,4.056157112,-7.360949993,-221.0812836,-53.77359009,-43.19215393
1990,0.882169247,5.560595989,-7.964498997,-178.3283386,-48.72922134,-39.10449982
1991,1.444556355,5.104549408,-8.119561195,-118.5975876,-38.55140305,-26.0050087
1992,2.040512562,3.429615498,-6.814198494,-70.43054199,-25.200037,-20.09220505
1993,0.176240385,2.522435427,-5.337843418,-31.83415604,-36.4549675,-25.83869743
1994,-0.710940778,2.293862343,-7.016031742,35.54236984,-64.33699799,-24.22570419
1995,0.694754899,2.94870019,-5.831425667,85.52404022,-74.77338409,-22.26829338
1996,1.63771379,4.786869049,-4.261011124,97.10968781,-64.5269165,-13.81618595
1997,2.315691471,1.961648583,-5.373161316,87.26573944,-36.21153259,-6.281841278
1998,-0.18451786,1.044614077,-7.396089077,135.8890686,-5.612314224,-7.085243225
1999,0.020661347,2.60964942,-8.476294518,213.4287415,32.33369827,3.095924616
2000,1.141232729,3.528887987,-9.785821915,243.3825378,44.64651108,7.245765209
2001,2.013422012,3.965827942,-10.11974525,232.7774353,29.93547249,7.32004118
2002,2.579060316,3.873303175,-10.3435812,215.868515,2.70225358,16.93142319
2003,3.943057775,3.506970406,-10.46192074,193.8469543,0.367265284,26.79773712
2004,3.268063545,3.084780216,-9.715955734,161.118927,17.18649292,21.60143852
2005,2.251590729,3.562671661,-9.451282501,146.3809052,34.2939682,9.955420494
2006,2.188250542,3.757224798,-10.11314487,112.7836533,28.43380356,15.32745552
2007,1.4868325,3.998245239,-11.44393349,45.11544037,15.12407589,25.26624298
2008,0.698247969,3.29525733,-11.34438992,-22.86547661,14.25995827,26.0569706
2009,0.485035181,3.466427803,-10.86839104,-53.26203918,7.303798676,22.30656624
2010,0.035218731,2.351400852,-11.3634634,-60.2141571,14.5890789,21.43549538
2011,0.618626475,1.117103934,-10.61732483,-65.31615448,30.37662125,22.11323547
2012,3.609777212,1.925154924,-8.989304543,-88.03772736,44.57245255,14.31590557
2013,3.972719193,2.46928072,-5.294054031,-130.5619354,69.11663818,-10.33955765
2014,2.127425194,0.722901464,-7.149448395,-115.5267258,59.28292847,-17.4093132
2015,0.872648478,-1.41006577,-8.918459892,-42.92307281,32.72199631,14.32959747
2016,1.56239748,0.272126108,-9.283949852,17.04590034,26.55213737,42.63990021
2017,3.542402506,1.693796873,-8.094381332,27.11532593,25.17554092,39.70656967
2018,5.147232056,1.784963369,-8.700029373,-6.756999493,35.56182098,14.80742836
2019,5.453959465,1.223039865,-10.31229305,-23.65656662,65.72438049,-3.335433006
2020,3.73781848,0.718442619,-10.20440292,16.96798706,64.71521759,-6.427802086
2021,2.181187868,-0.086258635,-8.596478462,65.31466675,57.94336319,-6.100827694
2022,2.075538874,-1.737593651,-8.016002655,105.1549759,43.34831238,-2.109647751
2023,2.682046652,-4.410842419,-7.669897079,126.9124603,16.07326508,9.616544724
2024,2.25416398,-4.995196342,-8.865195274,139.4717865,-1.01978898,13.14735126
2025,2.725084543,-3.069109917,-11.31277657,157.6724854,-17.05698013,12.37737179
2026,2.299064636,-1.224045277,-10.23801613,171.0638428,-20.52731514,11.8021698
2027,2.48987174,-0.458539307,-9.639160156,183.6352386,-16.74933815,11.0029192
2028,3.237769365,-0.255302072,-8.137588501,196.8099976,-19.95310783,16.93705177
2029,2.084404707,-1.346239686,-7.260486126,182.0269318,-33.51824951,31.56936264
2030,1.155596018,-1.451888919,-9.463708878,190.3943787,-26.94252014,42.70125198
2031,0.48995176,-2.075502634,-9.63574028,218.396347,-23.65517616,45.23476028
2032,1.116905212,-2.550540209,-10.83210945,240.151474,-21.25884438,43.49536133
2033,3.050664425,-2.803505421,-9.467600822,246.0740204,-13.76439762,45.00494385
2034,5.351160049,-2.95567131,-8.551264763,225.8029022,-24.32684326,49.5274353
2035,6.685660362,-3.378707886,-8.499219894,184.9103851,-31.65978813,47.06348801
2036,5.906374931,-3.261053324,-9.821858406,157.2717285,-29.80595207,34.71747971
2037,3.396908045,-3.191932201,-9.233270645,132.9554901,-23.6530571,23.63905144
2038,1.379699707,-2.10029459,-8.492010117,100.8932953,-24.2046032,21.42152405
2039,0.601263046,-2.340348959,-8.300862312,45.74785995,-18.32937431,26.00372124
2040,-0.23932597,-2.552148342,-7.408866405,-23.98326683,-25.19327164,35.1518631
2041,-0.117564492,-2.740439177,-7.350860596,-31.30268288,-25.16212273,36.9707222
2042,1.382150173,-3.27947402,-7.263413906,-31.00643349,-27.16179657,23.06982231
2043,2.129225254,-3.431946754,-7.022066593,-102.9333878,-43.22920227,7.269953728
2044,2.815784931,-2.10085535,-5.964620113,-176.5250244,-42.58675766,-9.817749977
2045,2.531844378,-0.275878221,-5.693465233,-198.953476,-26.11597633,-25.06397629
2046,0.406942546,-1.872666955,-7.409801006,-177.3701019,-3.598476171,-19.44625664
2047,-0.813169003,-3.987440825,-8.637828827,-126.5459518,0.422889471,1.680710196
2048,1.220644236,-4.812018871,-8.842393875,-75.66382599,-12.83136272,10.37418747
2049,4.584288597,-4.181204319,-10.07146358,-61.1223526,-22.79958916,-2.176984072
2050,6.307519913,-3.139749527,-11.57001686,-63.39240646,-1.733000994,-17.69538689
2051,4.670097828,-3.11952734,-10.35699368,-51.58021545,15.56428051,-23.69927216
2052,2.418496609,-2.677702188,-11.14545918,-40.76557541,6.377412796,-21.6265583
2053,1.666818023,-2.619515181,-11.35842705,-48.3471756,10.00692081,-17.32385445
2054,1.013888121,-3.155981779,-9.569295883,-67.75855255,43.52048492,-16.2760601
2055,0.410324752,-4.230121613,-8.234783173,-76.34179688,43.06932449,-26.58836174
2056,0.520704329,-4.574149132,-8.974543571,-52.81673431,25.53035355,-37.89258194
2057,0.774726808,-3.587645054,-9.328121185,-26.97794724,25.65590096,-40.00741959
2058,1.034369349,-1.578734756,-10.25311661,-16.5496006,25.12470055,-35.77480698
2059,1.496646523,-0.833437502,-9.829389572,-19.87184906,28.20570946,-27.67856407
2060,2.58887887,0.023168826,-10.11576366,-14.11799812,30.50457191,-18.64902496
2061,3.122036934,-1.007489085,-8.52089119,-28.51307487,23.36759949,-14.37835598
2062,2.878354549,-0.770074844,-8.693325996,-38.08172989,26.32063484,-16.15524483
2063,1.745881557,-0.765104592,-8.400570869,-30.96120071,29.596138,-14.16196537
2064,1.178704023,-0.87473166,-9.488416672,-8.683422089,36.3071022,-17.04673576
2065,3.036818981,-0.63763088,-9.607107162,10.15763855,39.90658951,-16.71108437
2066,4.899825573,-1.053223491,-9.739545822,19.00449562,40.39341736,-14.14463425
2067,5.39473772,-1.503863573,-9.25790596,10.30772495,34.94870377,-11.0316391
2068,4.7012887,-0.798241854,-8.638183594,-17.9610405,35.84974289,-12.27449989
2069,3.748702526,0.394554794,-8.943742752,-40.89190292,33.15179443,-15.56478405
2070,2.765505075,1.643979788,-9.456794739,-49.17563248,26.75849152,-11.29951859
2071,1.491952181,2.306337595,-8.870740891,-64.30890656,20.53451347,1.274463773
2072,0.691744983,1.347271085,-8.150186539,-89.53370667,21.29136658,3.731811762
2073,0.437508821,0.949596107,-5.335482597,-124.4459152,2.199527264,-2.569836855
2074,-0.239891797,1.812431216,-8.741571426,-117.8781281,-74.76878357,10.31742477
2075,1.723647118,1.775498509,-13.45513725,-95.64663696,-82.59910583,13.55618095
2076,2.202439785,1.622817874,-12.30913258,-141.0829315,-47.95732498,0.637620449
2077,2.76487422,2.455965996,-8.553271294,-185.8708344,-45.93225098,-18.14732361
2078,2.873571634,4.722415447,-7.512873173,-220.1139984,-50.93549728,-24.9901123
2079,1.917572141,3.156166792,-8.879029274,-257.5276794,-54.36721802,-13.75311089
2080,1.18115139,0.650769353,-11.02378654,-259.9590454,-49.51603699,-1.97138381
2081,2.28869009,-0.484561324,-10.72383499,-212.7271118,-36.43339157,-6.361856461
2082,4.099749088,0.071055174,-9.278534889,-187.9690247,-26.18766022,-20.19129181
2083,5.736253262,1.542164803,-7.640800476,-189.0470886,-28.24661255,-33.55935287
2084,4.990828037,3.133509636,-7.070494175,-182.8654633,-38.34591675,-36.40510559
2085,3.037523985,4.058272362,-7.48764801,-156.756134,-41.46592712,-39.54878235
2086,1.800171018,4.661717892,-8.117594719,-118.641983,-49.99254227,-37.71218109
2087,0.543448329,4.701906204,-7.326940536,-91.29299927,-46.21173477,-34.49408722
2088,0.34158507,4.238064766,-6.347291946,-47.15488052,-43.75831604,-32.18038177
2089,-0.613964558,3.562047482,-5.575750351,-3.867444038,-52.94102859,-33.82699585
