PacketCounter,Acc_X,Acc_Y,Acc_Z,Gyr_X,Gyr_Y,Gyr_Z
449,0.43186456,0.289771706,10.66179276,-5.223800659,-47.42465973,23.18257141
450,-1.196180224,0.150332168,8.957314491,-22.91118813,-51.1091423,13.16224575
451,-0.357364595,-0.251770079,7.344043732,-24.57445526,-66.93209076,-3.371370792
452,0.646344423,-0.114864111,7.953946114,-12.56774044,-70.08013153,-8.599658966
453,0.485072047,-0.025770921,9.174931526,-14.74465561,-65.17940521,-5.446408749
454,0.720475972,0.29273808,10.21554184,-19.34900665,-59.28561783,-3.91451931
455,1.1694417,0.136281118,10.45370579,-16.37182617,-60.61925507,-1.832806349
456,0.772251546,-0.134700015,10.48151398,-15.62091255,-62.14694977,1.17591536
457,0.684628963,-0.59453094,10.86459446,-17.03206635,-60.3803215,4.803798676
458,0.926417053,-0.839795768,11.24560928,-15.1078186,-61.72732925,8.269558907
459,1.82610786,-0.604220688,11.06864834,-11.62915516,-67.28196716,10.34425354
460,2.387818575,-0.526026666,10.91487503,-13.44476795,-72.57488251,11.82028294
461,2.444489956,-0.681803405,10.64133453,-17.3039856,-70.05699158,12.82450294
462,2.693557262,-0.301602781,10.43203831,-18.43806648,-64.67506409,13.12866592
463,3.076602221,-0.096423209,10.23228359,-18.87358284,-57.39703751,11.71879196
464,3.387130499,0.065187737,9.935455322,-21.57501793,-59.46901703,11.01200104
465,3.594180346,-0.030337621,9.635134697,-23.40500641,-61.01418304,12.24466801
466,3.572954893,-0.557137191,9.166196823,-24.67021179,-57.587677,11.90456295
467,3.493564844,-1.40458715,9.313339233,-28.15227509,-53.21478653,11.36178303
468,3.522908449,-1.931530476,10.0491457,-23.56828499,-48.23551559,10.31758881
469,3.213047266,-1.589698195,10.60103321,-11.69448948,-47.80848312,9.43500042
470,3.950267076,-1.345812082,10.89247894,-12.86916637,-56.57198334,8.263518333
471,4.11112833,-1.591959119,10.7312479,-12.13101959,-63.56111145,3.700276375
472,4.440689564,-1.8377707,10.1086731,-9.233617783,-67.45375061,-0.102618948
473,4.525893688,-1.74095571,9.753349304,-5.930911541,-68.60914612,-2.671718121
474,4.386497021,-1.567977905,9.557056427,-2.143522263,-66.80734253,-2.226124287
475,4.53498888,-1.505935073,9.662133217,3.390460014,-64.15519714,0.223313972
476,5.348844528,-1.598292112,9.527462959,10.05845642,-61.4721489,0.016232271
477,5.855091095,-1.957951546,8.521526337,19.29934502,-48.38594437,-3.100011587
478,5.644661427,-1.116084576,8.686049461,13.95155334,-34.02011871,-4.878166676
479,6.131736755,-0.426579207,10.23974705,-17.89847755,-31.36692619,-1.023936391
480,7.273043156,-1.479929447,9.821271896,-33.76113129,-20.86138725,-1.96230185
481,7.449213505,-3.002524614,9.950410843,-26.17315292,12.67577267,-9.113323212
482,7.19836235,-1.769945741,10.27960587,-4.220611095,23.99617577,-7.595002174
483,6.362238407,-1.043949127,9.333444595,-17.30335617,14.10582924,-0.398905694
484,6.748475075,-2.291501045,8.035003662,0.090009525,16.3605957,5.309947014
485,6.066492558,-3.203873396,7.955301762,14.43635941,30.55478287,11.27308846
486,5.846350193,-3.161580086,7.598505497,31.64032555,37.29753113,12.62455559
487,5.148854256,-2.333346367,8.422584534,37.0736618,44.59844208,5.911487579
488,4.324060917,-1.408532381,9.351634026,29.87065125,48.85518265,-2.103032112
489,4.542693615,-0.504789472,8.878355026,25.36151123,48.65574265,-2.484842539
490,4.929976463,-0.500359535,8.922190666,22.63732147,46.271595,1.867163897
491,5.115754604,-0.701326728,8.716357231,34.53675842,43.27749634,4.6122756
492,5.147083759,-0.179284573,8.234952927,52.62686157,39.67948532,7.951616764
493,4.125175953,-0.374331862,8.887495041,36.95553207,45.10712814,8.22903347
494,4.360069275,-0.704001307,8.437767982,14.18463421,41.54204941,3.308190823
495,4.33686018,-0.636617184,7.708469391,12.51117802,24.99311256,-1.611555457
496,4.554199696,-0.360864937,6.853938103,19.22001266,12.38577843,-0.554592669
497,5.322865963,-0.145685077,7.068556786,23.35609436,6.226594448,2.276378155
498,5.673788548,-0.447349489,7.768820286,3.805080891,-1.695663571,2.152536392
499,4.831683159,-0.21662268,6.687289715,-15.19183636,-0.411340237,0.916800857
500,4.159385681,-0.289220572,5.711828232,-30.87969208,9.68138504,2.025184155
501,3.820568323,-0.67450577,4.808638096,-31.09733582,21.95617294,-5.52739048
502,4.080845356,-0.790883541,4.757490635,-17.36863899,26.23608971,-9.391136169
503,3.542618513,-0.416470706,4.346689701,9.881501198,36.21479797,-9.192713737
504,2.943532705,-1.066723228,5.231533527,38.58667374,48.53098297,-3.560878992
505,2.864086866,-1.66484797,6.084416866,30.51159668,32.04302979,-6.668339729
506,2.223212004,-1.250749946,6.740514755,23.45962906,7.130730152,-14.81651592
507,0.93421942,-0.100207493,6.652108669,38.27861786,3.173080921,-17.58738899
508,2.132639408,-0.189470381,5.829499245,38.92996216,4.993374825,-16.95297623
509,3.194442987,0.155230075,6.216406345,34.56150436,-19.91720581,-21.4761734
510,2.437862396,0.67243278,7.196193218,17.84060097,-37.05353928,-20.89323044
511,0.904108346,0.789355755,6.873398304,-1.468484521,-58.66907883,-13.31703186
512,0.526786327,0.051455885,6.69866991,-10.79919624,-73.18849182,-14.478405
513,0.393575996,-1.4101969,5.991626263,-1.536831617,-88.5177002,-17.3820076
514,0.769939244,-2.442828417,5.9791646,8.841035843,-93.25244141,-15.65830994
515,1.270513654,-1.718338728,6.683442116,13.16126537,-99.8055954,-14.6835413
516,2.215471029,-0.424955875,7.18673563,16.67365456,-105.9169235,-16.56120682
517,2.289447069,-0.52205044,7.859845161,24.67271042,-106.963562,-18.25852776
518,2.384748697,-1.059916377,7.424913883,29.85735703,-98.58753967,-19.08925629
519,2.946839333,-0.339094967,8.699576378,18.07216072,-91.75124359,-16.370327
520,3.492927313,0.445647001,8.872819901,1.781074405,-76.50827789,-12.15075684
521,4.226009369,-0.214085013,8.971652031,12.7291441,-55.64301682,-12.08491898
522,4.292593002,-0.772360921,8.951771736,18.40942764,-43.25902939,-12.34136391
523,3.988569975,-0.171617463,9.004038811,4.826158047,-38.77941895,-8.555125237
524,4.57929945,1.123479962,9.117735863,-1.293835044,-45.79779816,-6.043668747
525,5.181631565,1.999122739,8.872426033,-8.788223267,-42.59154892,-4.365841389
526,5.630030155,0.95113951,8.449993134,-5.361504555,-43.98838425,-3.094752312
527,5.742499352,0.174615979,7.972506523,-5.895879269,-44.15462494,-2.691977262
528,6.102643967,0.350626081,7.78067112,-2.245995045,-46.88685226,-4.373799801
529,7.301803112,0.46036455,8.059749603,-5.400786877,-46.72933197,-0.71513772
530,7.733950138,0.117512181,8.063574791,-1.3086766,-43.00759125,5.253551483
531,9.156447411,-0.228308633,7.736963749,8.223472595,-39.69881821,6.118916512
532,10.05482101,0.382969737,7.124416828,12.9402132,-32.64754868,5.156134129
533,10.78667164,1.283910036,7.06029892,18.38088799,-25.10130692,9.090921402
534,9.62942791,1.100205302,7.180324554,20.57511711,-15.54763126,10.56277752
535,9.519948959,0.708909333,7.43643856,23.54255104,-8.671814919,6.929729939
536,8.919459343,0.239442572,7.317947388,18.75934219,-10.58611774,1.961711884
537,6.353738785,-1.282213926,8.769188881,15.03732395,16.41088295,-0.29805547
538,8.837478638,-0.283454686,10.80528831,0.136689857,51.15115356,-8.78891468
539,11.28423595,1.043766975,11.98818207,-46.11055756,76.0664444,-13.763134
540,12.16819286,-0.908172607,10.65459061,-64.25424194,83.69967651,-13.23399258
541,12.64356327,-1.212690592,7.540581703,-54.64890289,89.83688354,-1.178307056
542,12.4230175,-0.001412639,5.475490093,-31.44830513,83.79886627,16.25756645
543,11.66073036,0.202493161,4.952919006,-18.6922493,98.4225235,25.61870384
544,11.51400185,0.286480278,4.972626209,-17.97370148,107.4474945,23.42733765
545,12.84105873,0.829583168,4.768157482,-11.14949036,98.42914581,24.82875633
546,10.55892754,1.502698421,4.120203972,-5.007981777,83.76442719,25.33657074
547,8.29450798,0.822715938,3.482035637,-8.978323936,91.78422546,26.45171356
548,7.4774189,0.345688492,4.229272842,-12.5214653,119.9200745,25.92704582
549,5.110753536,-0.690464795,5.142525196,-7.436835766,187.6216431,17.45122719
550,1.427438736,-0.198394597,5.083912373,16.80536461,252.711731,3.825321436
551,0.061810061,0.807063341,3.984905958,6.886254787,260.1650085,-3.409441948
552,-0.261972845,1.051232576,3.19743228,-30.99923706,268.7546997,-1.305393577
553,0.052176252,0.15034169,2.097799063,-32.87050247,257.8794861,6.071560383
554,-0.064129554,-1.863154054,2.483209848,-16.03558922,243.7408295,14.94637871
555,-2.782659054,-2.82746315,3.795732021,7.131514072,222.8730469,8.895104408
556,-3.959605932,-1.323687673,7.739277363,5.108669281,205.1792603,10.47947788
557,-3.921142101,0.240323454,10.65283585,4.506285667,195.2779694,11.27444649
558,-3.726736307,0.697891235,9.191383362,15.06092548,169.1072693,11.44481277
559,-2.749401808,-0.676531196,7.327130795,-3.567060232,140.2775726,7.998679161
560,-2.806230307,-0.815720618,7.273396969,15.2583828,98.36621857,0.751009762
561,-3.883753777,-1.007718325,7.616226673,26.85042,65.81677246,2.950565338
562,-4.449672699,-1.842475295,8.257460594,21.79743958,41.8481102,11.23785019
563,-4.067798138,-1.957541704,8.551383018,17.76167488,25.49892998,12.27825737
564,-3.098459959,-1.32633245,8.283013344,29.4369278,-1.830584049,5.347198963
565,-3.332404137,-0.523912191,7.796047688,41.51842117,-18.07338715,1.895449638
566,-3.455818415,0.101786688,7.572855949,46.11994171,-32.45932007,-1.229948401
567,-2.820562363,-0.119279869,8.299958229,41.2898941,-43.6370697,-2.146883965
568,-2.192686796,-0.114833705,8.922247887,27.74688148,-61.70973587,-0.316321939
569,-1.740802407,0.703419507,9.156859398,9.282136917,-80.35433197,5.089547157
570,-1.871519208,0.968384802,9.511462212,-0.580545545,-100.4250793,12.20662689
571,-1.941325307,0.972544909,9.99790287,-4.905963898,-112.7313004,12.09359169
572,-2.077770472,0.779697776,10.79530525,-1.540875077,-120.2825546,7.92658329
573,-1.563560724,0.029337393,10.87295341,1.863713861,-124.3938522,0.31744194
574,-0.034290314,-0.115465067,11.03981781,2.604065895,-130.6787262,-8.76043129
575,0.765180707,0.045783475,11.14011669,0.643839598,-140.3093109,-14.15645218
576,0.460400015,0.165912047,11.00912952,-0.137947664,-146.006958,-14.61145115
577,0.993451595,0.163319096,10.53280258,-0.765406132,-148.7671356,-13.83477497
578,1.960759521,0.297860593,10.27915859,-0.456146926,-149.2377167,-11.77392101
579,2.631178856,0.528607368,10.02020931,-0.803621471,-147.1119232,-9.41703701
580,3.289801836,0.88179481,9.82738781,-1.980229616,-133.4790192,-7.015003681
581,3.755688429,0.914964795,10.63050556,-1.976737618,-113.9156418,-2.275344133
582,3.508565187,0.234582156,13.06321621,1.108440876,-107.1423187,2.116251707
583,3.166711569,-0.392368108,14.55805492,7.053268909,-115.1903381,-0.245547682
584,3.616342545,-0.351124614,14.71889973,17.85112762,-126.0423737,-1.694389462
585,5.386085033,-0.134359285,13.81366348,28.02088356,-133.4043121,-0.893826604
586,6.556844711,-0.352660447,11.74273777,29.46964073,-123.3966751,-2.648567438
587,6.529558659,-0.282583475,10.32010269,9.001534462,-93.19086456,-3.532446146
588,6.961823463,-1.409678817,10.51675129,-11.59367752,-48.48443222,-0.568273962
589,7.849637985,-1.859742641,9.652641296,-9.549388885,-16.59431267,-5.795305252
590,8.117276192,-1.233602524,9.39713192,12.12251663,12.0678339,-13.58059406
591,6.360848904,-0.272674739,10.3509264,22.83001328,33.67198944,-10.13786411
592,6.757472038,1.122471571,9.874182701,29.82638168,42.29119873,-5.453802586
593,9.091976166,1.758785725,7.948028088,20.12610054,26.86635399,-0.270317554
594,10.11425686,0.596596897,5.910871983,9.836544037,6.491971016,-4.724483013
595,9.11228466,0.167427078,4.906709194,12.22480011,13.22533607,-11.23620605
596,7.321451664,1.114721775,5.675102234,39.48718262,25.39610481,-6.658815384
597,4.663300037,1.832825899,7.75367403,32.38314819,21.34619331,-1.838899136
598,2.93666625,2.238868475,9.206795692,24.71806335,12.15829563,-2.968468189
599,2.747617722,2.312211514,10.1595993,2.928628445,14.38163757,-3.901098967
600,4.148784161,1.695147514,9.989044189,-12.56890488,8.461526871,1.831341505
601,4.69891119,0.751244843,9.657173157,-6.080893517,1.043865442,10.50837803
602,4.839647293,-0.133516699,9.442032814,9.206807137,-1.640533447,14.52432919
603,4.702741623,-0.452441573,9.497918129,16.72854614,0.565945506,13.61837673
604,5.11362648,-0.071971729,9.760317802,20.18317986,-1.34480989,9.671967506
605,5.372857571,0.888178945,9.595089912,23.91722488,0.972766101,8.090782166
606,5.813425541,2.73135519,8.774987221,8.182768822,8.640237808,3.798909903
607,6.806191444,3.281503439,7.735631943,-38.48034668,30.30531311,2.636728287
608,6.069966316,2.747138977,7.786133766,-37.36099243,52.85016251,4.231043816
609,4.943036556,0.831622362,7.335475445,-44.75956726,52.87955475,6.297943592
610,3.677380323,-0.130912483,7.710868359,-33.8517189,32.93280411,6.655635357
611,3.420893192,-0.739791036,6.817428112,-31.00063133,22.7283802,8.541901588
612,3.815972328,-0.054839183,6.203553677,-21.84819794,22.80669785,5.310217381
613,3.946118832,0.636393309,5.899312496,5.706758499,35.18291855,-0.738558233
614,4.000851631,0.486605495,4.924721241,38.56086349,54.33350372,-1.649496555
615,2.307654381,-1.350915194,4.722792625,48.06324005,51.94895935,0.069776632
616,2.320602179,-1.67329824,5.355686188,39.9200058,28.94116402,-8.873853683
617,2.302795887,-0.712474227,6.194325924,34.56174469,-2.719185114,-10.48069
618,1.775051117,0.277983487,7.019583225,31.0442791,-20.43070793,-12.37050056
619,1.562271833,0.832964003,8.278371811,23.03487587,-32.42480087,-12.66202259
620,0.867507577,1.536362052,8.00714016,21.17159462,-61.20911026,-10.18747807
621,0.662504315,1.094525814,6.88512373,20.41475868,-75.39115143,-7.061331272
622,1.07486558,0.462665886,5.554728508,30.25494766,-80.51802063,-10.30385113
623,2.164727688,-0.322961956,5.709309101,28.92935562,-86.47336578,-9.212353706
624,2.93332696,0.147244543,6.391726017,23.84493065,-98.28289795,0.76262635
625,2.680199146,0.188441023,6.667338848,10.81682491,-102.5230026,9.819633484
626,3.011579275,0.83349359,6.789852142,4.050577641,-107.4003372,9.420435905
627,2.877055407,0.229121521,6.737664223,5.260968685,-116.8215637,10.78458977
628,2.4473176,-0.006763071,6.845822334,6.554636955,-118.5414963,8.455002785
629,2.333239079,0.921979427,7.272393703,7.30791235,-113.069664,10.99128914
630,2.874693155,1.392798901,7.844040394,-1.122776747,-104.2991104,15.27267742
631,3.512512684,1.550173283,9.261511803,-39.19002914,-96.2645874,19.23031616
632,3.127545118,0.857360125,8.194296837,-79.25313568,-91.55187988,18.02640533
633,3.399660826,1.209086776,7.183205605,-63.10276031,-81.44372559,8.692667961
634,3.914941788,1.094254494,8.368386269,-44.57916641,-64.19316864,6.170290947
635,5.147055149,1.089754701,8.47084713,-34.52124023,-50.78971863,1.802844286
636,5.385672569,0.571454585,8.70362854,-23.29747772,-42.07701874,-0.209910616
637,4.834452629,0.362642676,8.585736275,-19.30231857,-40.58104706,4.726518154
638,5.331139565,0.016329801,7.766078472,-21.16986847,-35.05717468,4.734170437
639,6.740771294,-0.543847859,7.426396847,-19.37215233,-33.49253464,1.567076445
640,8.196715355,-0.554191291,7.721008778,-25.03313446,-36.19989014,-0.330598146
641,9.005979538,-0.675080597,7.237146854,-23.28409386,-37.84318161,-2.132361889
642,9.87954998,-0.406186312,6.311050415,-31.36558533,-29.22377014,-8.253260612
643,10.35395622,0.508649349,6.092044353,-15.09472847,-15.15635204,-2.736670017
644,11.5985508,1.495571613,5.898858547,-4.24052906,-1.675429583,8.336519241
645,11.06539726,-0.185763106,5.454288006,-1.123169541,7.279016972,18.39922142
646,9.937736511,-1.095465302,5.423052311,8.58752346,30.35105324,17.5826416
647,9.03494072,0.260972708,7.318053722,23.41392899,58.89429855,17.72325134
648,6.424313068,0.435607702,10.12666702,20.30418205,81.64311218,10.90768147
649,10.9756403,-0.76114136,9.731748581,-8.72600174,103.330368,-6.257753372
650,13.42560577,-1.047874689,8.703086853,-3.034983635,93.67543793,-16.58330345
651,14.16250896,0.284719467,7.724269867,14.19692135,94.62670898,-17.99220467
652,14.31037712,0.475287855,5.637063026,41.56977463,100.2697296,-5.368247986
653,11.58321285,0.306221724,6.069087029,52.46255112,101.3748016,-3.73660326
654,10.88171101,0.423346072,4.99383688,27.11589241,112.1812744,-10.81288815
655,11.65630913,0.697458804,3.71592474,2.061150789,111.0658035,-10.4728899
656,10.02766323,0.798891187,3.995989799,-10.7724371,105.1500626,-7.907812119
657,6.4815135,0.882319808,5.473554611,-14.79224205,100.0205002,-4.332544804
658,3.207834959,0.90081811,5.56287241,-10.8316431,120.0710907,-7.418869495
659,3.279945612,1.532469988,5.963592529,-6.331244469,179.2836761,-8.955218315
660,2.161220074,2.079789877,7.47135067,-18.81840515,247.5236206,-9.346456528
661,1.903066397,1.789193988,7.378376484,-13.20092392,280.2001953,-0.316481411
662,0.874881148,0.1595532,6.419793606,-11.12960625,272.8406372,2.495620966
663,-1.100311399,-0.762598276,5.927694798,-3.759985447,256.6889038,-4.462640285
664,-1.366198778,-1.01671958,6.209865093,4.506976604,243.2055054,-10.57200623
665,-1.790101051,0.366831779,6.468381405,-5.856387138,218.9936371,-4.795239925
666,-2.325572491,0.930640221,6.798848152,13.29318237,189.0710602,0.475873798
667,-3.332274437,0.84009558,6.446174145,4.747066498,163.9932861,2.854210615
668,-3.828004599,0.286261231,6.500417233,11.14088726,144.8191986,5.696425915
669,-2.936639071,-1.62992382,7.015710831,-4.668532372,115.6428757,4.531850338
670,-1.532765031,-1.90540266,7.074691772,-14.91320419,81.89956665,1.331796885
671,-3.055209398,-0.939112008,6.449273586,-8.79087925,56.91756821,-1.249363542
672,-3.667654514,0.897221267,7.514227867,-12.4690094,41.13033295,-3.000880003
673,-3.559786081,0.924031377,7.690770626,-10.04780388,9.845638275,-2.70885253
674,-3.470479727,0.195929542,7.77712965,-0.183258906,-8.664855003,0.747141778
675,-3.159556389,0.491960645,7.968784809,10.48479176,-27.53569984,5.995062351
676,-3.231661797,1.415480971,8.288568497,10.76122093,-47.50998306,3.232215166
677,-3.040784121,1.693903446,8.006570816,9.018526077,-61.49860764,-1.108955264
678,-1.689203024,0.771579027,8.061638832,12.17903423,-73.85341644,-1.088932633
679,-1.790337801,0.378135681,8.775588036,16.72126198,-88.69529724,-2.558218479
680,-1.789699316,-0.362274528,9.060313225,13.78311157,-103.4737244,-1.064504504
681,-1.196737051,-0.158261582,9.628344536,8.772310257,-117.4339447,1.885859251
682,-0.771326423,0.013829473,10.26837158,12.3300209,-134.2893829,4.252102852
683,-0.25878638,0.360876948,10.70949078,18.02051163,-141.3815613,4.709302902
684,0.616825819,0.695581138,11.00014973,24.31134224,-142.4282684,7.561395168
685,0.875020027,0.943583786,10.41737366,23.9406662,-139.6679993,14.36358547
686,1.525082588,1.812095165,11.47474194,0.873015046,-127.2479706,19.0879364
687,2.588497877,2.388742924,13.19940186,-34.64096451,-135.1931152,19.87786484
688,3.582602978,-0.077989832,13.55661201,-58.86444092,-137.9320221,11.78518295
689,3.707046032,-3.333873749,13.93447399,-48.34115601,-136.6653595,-7.583138943
690,4.493191719,-2.753689289,14.00197029,-26.99952698,-136.1505737,-21.3495903
691,4.410136223,-0.875716686,14.10748577,-22.81674004,-126.9676285,-20.47103882
692,4.556864262,-0.375277609,13.91165733,-31.97181892,-119.3518906,-13.38849926
693,5.38161087,-1.175679684,12.18723583,-37.4582901,-104.4769287,-9.339414597
694,6.653159618,-2.806151628,10.86053371,-19.61471558,-82.60797882,-13.78526688
695,7.38243866,-1.633880138,11.98604488,6.871243477,-47.51098251,-21.13608932
696,8.175171852,-0.045633499,13.23820972,18.68045235,-22.72667885,-19.18518448
697,7.639408588,1.324981213,12.28095913,23.76516533,-18.36947823,-8.647465706
698,7.302660942,0.531691015,9.906234741,5.543096066,-7.408552647,-5.589000225
699,8.901870728,-0.447683752,7.7245121,-2.391831398,7.953588963,-14.42859364
700,10.67544842,-0.275423497,6.484552383,4.133724213,8.728216171,-21.23360634
701,11.19169617,0.23806943,7.069219589,22.21565437,5.778081894,-18.4849968
702,9.602021217,0.206258997,7.646263123,31.84648895,-14.18844509,-14.93318939
703,8.149500847,0.211341426,7.145620346,30.16794777,-10.49138546,-8.785919189
704,6.093142033,0.257613897,7.946936131,15.92298794,2.130344391,-2.174058914
705,3.870856762,0.983689249,8.019386292,-4.48725605,4.624521255,0.32880947
706,3.594349146,1.547485828,7.994626999,-18.34627342,2.636324883,3.862457514
707,3.519195795,1.388048887,6.976982117,-27.09622765,11.03347778,1.214909911
708,3.238179445,1.213239551,5.92895937,-20.85909271,27.05855179,-0.002535668
709,2.400994539,0.779984534,5.163238049,-2.03187561,30.97246933,6.413359642
710,2.611835003,0.487263471,4.875146389,27.16939926,49.23913193,17.22808266
711,2.876110792,-0.153192312,6.024222374,34.29345322,59.53373337,22.08036232
712,2.502851009,-0.8866871,7.38650465,29.73140717,61.63165283,21.19428253
713,1.747606397,-1.143034339,8.107760429,-8.58146286,67.09119415,15.53188801
714,1.469603777,-0.741457105,7.793569565,-27.37722397,70.11576843,9.327828407
715,1.884104967,0.098959923,6.651778698,-10.54397869,67.88052368,4.449570179
716,1.155199051,0.390280902,6.589714527,21.67115974,52.09580612,5.133554459
717,0.640986741,-0.015866347,6.392167091,34.2504158,35.05443954,7.563950539
718,0.823777437,-0.349219918,7.231015205,27.11193848,18.16205597,7.668043613
719,1.214988351,-0.301289082,7.398017406,22.02134895,-7.189832211,2.96997118
720,0.816373289,-0.480572015,7.484838486,20.5144825,-24.29765129,0.626418412
721,1.066652179,-0.509167433,7.9129529,18.83748055,-39.53386307,0.205639347
722,1.068202138,-0.263100266,7.549943447,18.78096008,-45.4094429,-0.3509866
723,1.536990404,-0.331940442,7.793377399,11.17598534,-54.2841568,1.698172331
724,1.996084452,0.347143561,8.455142975,6.127729893,-64.14484406,-5.470607281
725,1.954820752,1.124454498,9.241692543,6.271026134,-73.54821777,-8.490198135
726,1.866995692,1.09095645,10.10429478,0.035596099,-81.81833649,-10.23185253
727,1.993369937,0.970803499,8.975183487,0.066012323,-92.09332275,-12.04321384
728,1.67700839,1.123112798,8.811389923,7.445362091,-92.22120667,-15.57941914
729,1.26677227,1.533042073,8.366070747,5.612108707,-87.00366974,-16.1646347
730,1.830865979,1.150979042,8.18076992,7.112978458,-78.5642395,-10.43437386
731,2.705952644,0.321824551,8.603597641,8.367687225,-68.04405212,-3.627817869
732,3.453444242,0.341795653,8.289741516,6.896689892,-69.37760162,3.941920042
733,3.729121685,0.331894636,8.988848686,0.590426445,-64.88942719,8.865334511
734,3.637150288,-0.129243731,8.780818939,-6.939389706,-67.58965302,9.733992577
735,3.88443327,-0.426086992,8.406927109,-10.91483974,-61.97379684,4.333557129
736,4.914465427,0.001504697,8.580604553,-6.472993374,-61.78096008,-4.02795887
737,5.154467583,0.406904072,8.837856293,5.592950821,-57.23766708,-6.783231735
738,4.978906631,0.496288776,9.22824192,9.751146317,-49.48896027,-8.838781357
739,5.893219948,-0.021528531,9.334908485,21.90667152,-38.63253403,-11.15952301
740,6.628130913,-0.326690316,8.84545517,19.71109962,-36.65909576,-14.71815777
741,7.811209679,0.188900292,8.995305061,18.1539669,-37.6038208,-21.49928665
742,8.068743706,0.225630879,8.642635345,22.70557785,-37.82019424,-25.05499458
743,7.950220108,-0.429535419,8.260653496,28.44035339,-26.65542221,-28.85892677
744,8.893705368,-0.784973145,8.295687675,35.89888763,-9.977703094,-31.17068481
745,10.020648,-0.117851242,6.978613377,39.76813889,-0.571181834,-36.33385468
746,8.483611107,1.807436466,6.870558262,32.96104431,19.21587944,-36.36748123
747,6.286159039,5.127420902,7.964825153,3.311776876,60.42500305,-21.84456825
748,6.839784622,5.750590801,9.257733345,-29.60033226,107.4835205,2.46310854
749,8.141793251,3.479573011,9.165558815,-43.60421371,133.0862579,11.49670792
750,8.808070183,0.143548876,8.606266022,-44.92816544,127.0147324,3.853645325
751,9.286438942,0.279202998,7.557353973,-40.40282822,121.1485977,-7.396029472
752,11.47259331,2.927119493,6.069515705,-39.45111084,117.5632401,-8.626418114
753,12.26317501,2.858671904,4.61097765,-53.38337326,125.4812012,0.558489501
754,10.11985397,1.793695807,4.482110023,-51.80563354,129.8591156,7.967975616
755,7.41635704,1.513213515,4.40751791,-51.26348114,122.662178,9.097361565
756,5.04410696,1.602070928,4.98660326,-54.00247955,110.9552841,11.89134693
757,2.761517286,1.09879458,5.945250511,-47.01071167,108.2194366,19.69443512
758,0.477515697,1.088913202,7.979599476,-52.78969955,136.308197,29.53293228
759,-0.58349514,0.829374671,8.505702972,-75.35321045,177.1651764,39.69780731
760,-1.118468761,0.371002823,7.35660696,-94.69231415,213.9681702,43.11244965
761,-2.589669228,-0.399851084,3.921049833,-94.57434082,216.5667419,33.42551804
762,-2.717023134,-2.008529425,3.702306271,-61.18270493,215.1407471,17.92558289
763,-1.541912317,-3.979151487,7.051538467,-18.72456551,177.9473419,11.65349007
764,-0.900576055,-3.895148039,7.696538448,14.56623554,174.8469696,4.240738869
765,-0.993079782,-0.897016048,8.270036697,15.09681892,152.7066498,2.031863689
766,-1.654476643,1.721089125,7.67514801,5.406408787,131.3526001,3.027612209
767,-3.357359648,0.950880408,7.616819859,4.979839325,109.6821747,-0.624144018
768,-3.68742609,-1.007994533,6.697879314,18.90064049,80.91924286,-2.653373957
769,-4.268181801,-2.571158171,7.029980659,33.69568634,58.51634216,-0.87171644
770,-5.471101284,-2.14453721,7.590598583,34.24343491,39.51601028,-6.540536404
771,-2.094884396,-0.706403613,8.359314919,23.88641167,36.82797241,-9.134039879
772,-1.414639592,-0.905563533,8.14111805,23.51160431,-25.20020103,-5.132781506
773,-3.086432695,-1.443150282,8.091768265,45.16745377,-34.02521896,-3.546976805
774,-3.884588003,-1.371517777,8.222702026,54.84695053,-43.46576691,-7.979032993
775,-3.643608093,-0.296779811,8.427727699,57.32060242,-58.46578979,-14.5815115
776,-3.102433681,0.778563619,9.093020439,56.46833801,-68.32911682,-14.50144958
777,-1.853059173,1.02390337,9.639184952,49.51165771,-85.84226227,-9.794599533
778,-2.133979082,1.281042099,10.20793629,38.96417236,-102.3080902,-6.091662884
779,-2.156382561,1.207832694,10.67279148,27.02226067,-110.4537201,-0.215386987
780,-1.983591437,0.798114657,10.68773937,13.8786602,-119.2882614,5.069337845
781,-0.946724057,0.559379816,11.00746536,6.756440163,-130.0401459,9.119725227
782,-0.121731579,0.031293925,10.94901085,-3.520325661,-136.1759491,10.87182713
783,0.553490758,-0.167945862,10.83784866,-10.09062099,-137.3211823,9.467517853
784,0.947721064,-0.124799266,10.89839363,-7.87498188,-135.2704926,7.391786098
785,1.578315854,-0.169749975,10.50817585,-4.25055933,-134.8899841,4.463625431
786,1.853363156,0.006423352,10.08876419,-1.471315026,-136.0332794,3.198511124
787,2.110854864,0.186860532,10.35002041,-1.806140184,-132.5014343,3.777371168
788,3.054075241,-0.107390083,10.6259079,-2.573044777,-121.3941422,3.983347178
789,4.015246868,-0.455079734,11.43114281,7.828948975,-111.2256317,1.200948954
790,3.601939678,-0.534208775,11.9682703,20.92705345,-106.3570175,-4.706630707
791,4.09147644,-0.110297278,11.89125347,35.35141754,-107.041748,-7.165166378
792,4.867751598,-0.925680518,12.44146252,42.17135239,-104.3492279,-4.713561535
793,5.467693329,1.307582855,12.34353733,37.03389359,-88.66910553,1.542299509
794,6.736380577,3.739667892,10.86714077,11.14163876,-56.47902298,9.728453636
795,6.642734051,3.920668364,9.338627815,-10.51685715,-30.39269257,19.82667923
796,5.716607571,0.352653176,9.246545792,-2.889451027,-3.426371098,23.14157104
797,6.197799206,-1.667563558,10.79909039,3.434189558,39.36688614,6.283887386
798,7.58143425,-0.927975953,11.42970753,-15.58794022,76.88621521,-10.68272972
799,6.440378666,0.443700582,10.93004322,-34.28131104,96.91326904,-13.10880661
800,5.028244495,0.760131061,9.774792671,-18.89971161,92.8640213,-8.290224075
801,5.816326618,1.317878127,7.824152946,-16.1563549,81.46870422,-12.23806477
802,6.772526741,0.592117369,6.702399731,-36.4785347,54.37307739,-12.03635025
803,4.877203941,0.143615097,8.346445084,-48.75430679,31.6456871,-6.934376717
804,3.033653736,0.242188603,9.725494385,-42.5195694,13.61873341,3.717382908
805,2.256152153,0.22322242,9.171020508,-43.1240921,4.490444183,12.4049263
806,2.765841246,-0.061973225,8.649619102,-48.48221588,14.21426678,19.40904999
807,3.243659258,-0.420640588,8.542853355,-61.67722321,16.20369148,22.23205757
808,4.318685532,-0.838252187,8.655396461,-58.78419495,15.48637962,17.9714222
809,4.265607834,-1.473885059,8.933794022,-49.46007156,25.62745667,12.03853512
810,3.346554041,-1.23347342,9.794034958,-34.84360504,35.02436066,12.34068966
811,2.513524294,-1.123603702,9.389260292,-33.18917465,25.72074127,11.58521748
812,2.674473047,-1.019515634,8.46777916,-33.58763504,12.98432159,5.301309109
813,2.569247246,-1.296908855,6.313199997,-42.54146194,18.9728775,-4.965419292
814,1.856674433,-0.57898891,4.771958351,-12.13805199,36.16923904,-9.417648315
815,2.549330473,-1.70602572,4.885220051,27.87977791,43.14401627,-3.031252861
816,1.47732842,-2.003761292,5.549852848,50.0262146,23.55541229,0.25869742
817,1.139926195,-1.831967592,6.992018223,63.07962418,-9.019781113,-2.029067278
818,1.256513715,-1.241215467,7.463880539,56.09935379,-37.57085419,-6.170724869
819,0.979683459,-0.58004725,7.132790565,42.97077179,-46.99159622,-11.99032688
820,1.238352895,0.014493279,7.767800331,33.0407486,-62.2142601,-11.1910553
821,0.280856907,-0.14828898,7.431740761,23.58517647,-77.54882813,-4.952714443
822,0.838634789,-0.244345173,7.250282764,15.31565952,-92.49514771,1.933056712
823,1.962393522,-0.738101542,6.706379414,13.81481075,-107.1324921,7.585147858
824,1.891669631,-0.367775619,7.476266384,9.728745461,-121.3930664,8.262212753
825,1.905172229,-0.178974092,7.792725563,6.874612331,-126.2329483,7.877111912
826,2.6296103,-0.049108006,7.701647282,2.873774767,-127.2337341,5.740793228
827,2.385951996,0.660479784,7.854667664,-7.524705887,-133.8174896,-1.281958342
828,2.168585539,1.00533092,7.710459232,-7.72128582,-133.7176819,-11.85901356
829,2.725667953,0.21843414,7.50340414,-1.888700604,-126.7722473,-20.02363586
830,3.324430227,-1.203858852,7.736405849,11.39287281,-116.2332611,-22.23504448
831,3.67833519,-1.370876908,7.900702,17.23000526,-97.09658051,-21.07306671
832,3.574368477,-0.966452003,7.721448421,27.72618866,-77.35076141,-21.67679787
833,3.603921652,-0.784382999,7.490346432,47.04219055,-64.07983398,-21.73574638
834,3.556539536,0.095827274,8.040765762,63.87225342,-37.69333649,-20.91809845
835,4.066226959,2.538444042,9.963012695,46.85631561,-43.65152359,-18.59205246
836,3.50086236,2.435770273,8.855256081,44.07148361,-33.14533615,-13.71783352
837,4.256427288,3.422282457,8.831530571,86.19999695,-12.10559559,-13.39865017
838,4.33850956,0.502011299,11.05409813,107.047554,-9.328473091,1.865301251
839,4.827457428,-1.212887406,9.921479225,47.27107239,-1.633463264,8.348214149
840,6.258625984,-0.463538796,8.885088921,25.69762039,-13.07200336,3.06138587
841,6.977734566,0.579064131,8.255799294,15.83716011,-22.08253288,-0.142867982
842,7.804338455,0.87662524,8.072122574,13.86412334,-25.37672234,-0.42486465
843,8.685552597,0.950895905,7.579996586,11.31017494,-22.00858879,0.004373378
844,8.594347,1.11055553,7.781386852,6.115847111,-7.714585304,1.751364946
845,9.633272171,1.780287027,8.368337631,-3.120586872,0.818152845,2.675777912
846,10.76091385,2.021420956,7.676482201,-20.73156929,1.002015352,9.715471268
847,9.982676506,1.13854754,7.185904026,-50.07727432,11.44519424,13.61622524
848,8.210896492,0.458872914,8.043193817,-71.33013916,25.08308411,7.218682766
849,6.81202364,0.063187763,9.530386925,-64.47824097,46.16295242,1.83613205
850,10.08131027,-0.575314522,9.336795807,-49.50169754,66.65205383,-6.157981396
851,13.20584679,-0.600848258,7.804243088,-19.62105942,72.20825195,-2.759899616
852,11.1992712,0.668033898,8.233258247,-22.4506588,53.80315781,-6.39710474
853,11.86619473,2.147818804,6.973538876,-21.87288666,64.23582458,-8.874563217
854,12.95256042,0.899447501,5.485332012,-29.89712524,91.00392914,-7.074931622
855,12.33769131,-0.316976339,5.674304962,-18.06789207,105.9985809,-11.14226532
856,12.02307892,-0.691201746,4.779152393,-14.54554176,93.63710785,-17.10599899
857,10.57216549,0.41693145,5.058364868,-12.66608143,88.46850586,-18.35261345
858,8.406135559,0.400943875,6.591822147,-13.44199657,78.09527588,-17.42404556
859,5.777231693,-0.084944062,7.974490643,-6.414435863,71.39485931,-13.69081974
860,2.802658319,-0.642268419,6.053797245,2.174385548,135.8967285,-11.29154873
861,2.6202178,-0.49616915,6.615422726,-1.387825131,234.5715179,-12.29095268
862,0.610002875,0.985154569,4.391119003,-35.71429062,286.7379761,-11.89655685
863,0.60236913,-0.151230291,3.523949862,-92.7141037,293.3093567,-4.749538898
864,-1.030786872,-1.226489425,2.950453043,-57.6964798,262.3974609,6.294354439
865,-1.495380402,-1.922811627,4.549883366,-44.9392662,246.2771759,4.954391956
866,-1.525607824,-0.708170414,6.311231136,-43.7328949,216.2334595,0.970663607
867,-1.643028498,-0.30842033,5.848008633,-31.85726357,187.9508057,2.223576069
868,-2.846878052,-0.706359923,6.171825886,-18.83077431,167.2285004,3.094341993
869,-3.042248249,-1.160822392,7.618047237,-11.2696476,147.3378906,-0.581901252
870,-3.576346397,-1.514870763,5.916074753,-6.87768507,111.863327,-1.654102802
871,-3.297196388,-1.180417776,6.565486908,-8.187141418,92.34859467,1.744591117
872,-2.805925846,-0.509840488,7.220941544,-20.44540977,64.00169373,5.740557194
873,-3.766031027,0.150804758,7.758377075,-37.47229385,41.19030762,8.52280426
874,-4.263514996,-0.135542005,7.747874737,-29.49736786,16.35068512,8.60904789
875,-3.890883207,-1.04030776,7.807293415,-6.090111732,-1.362045169,2.522217512
876,-3.948151112,-1.741889954,8.508813858,15.17656231,-24.15343857,-7.062018871
877,-3.243698835,-1.177775979,8.592720985,32.66762161,-45.37587357,-11.04009628
878,-3.450812101,-0.590233505,8.775443077,41.06584167,-57.19619751,-9.021080971
879,-2.307518005,-0.831906796,9.461598396,40.86097717,-68.96243286,-11.2672987
880,-1.675330758,-1.165351391,9.939486504,35.28041077,-81.95704651,-11.96394444
881,-1.760888815,-0.949422061,10.19169903,28.85667229,-95.32474518,-12.60762215
882,-1.619021773,-0.496540546,10.08709526,20.31184006,-104.3309097,-13.60282707
883,-1.439485788,-0.268793017,10.80846596,18.78937149,-118.7108231,-11.00963211
884,-1.186587811,0.19942826,10.89105225,11.82858086,-133.5667419,-13.21099281
885,-0.394820452,0.527904451,11.22767448,10.65318775,-144.7720032,-11.66924953
886,-0.267779857,0.217426226,11.4081068,10.40340424,-153.8579559,-10.36859989
887,0.331921637,-0.390076697,11.09941578,8.338053703,-152.8903351,-7.299365044
888,0.441190124,-0.906601965,10.83913898,5.836679459,-149.5961761,-1.525228381
889,1.722591281,-0.896861851,10.67996693,6.91529417,-151.8293304,3.220041037
890,2.876896381,-0.91564548,10.65013027,3.931794167,-153.7196655,2.475846767
891,3.714173317,-0.641005576,10.73305225,3.505872488,-147.4829407,0.976552725
892,3.856093645,-0.949064016,10.93083858,2.015408516,-135.58078,-1.021615982
893,4.273201466,-0.586194456,10.99596024,5.898389339,-123.058197,-5.551862717
894,4.463657856,-0.428409964,11.88345623,11.43827057,-111.1681976,-6.896214962
895,4.849023819,-0.384750247,12.8774538,7.728391647,-113.4004898,-10.34270382
896,5.579835415,-0.745103419,13.29351139,2.887730122,-114.9152145,-9.606031418
897,6.318058014,-1.959829688,12.99270248,-10.8591795,-100.093132,-13.28046322
898,7.809587002,-2.095083714,11.55992222,-47.82741928,-58.41320038,-17.05781555
899,9.277786255,-0.950972676,10.2305975,-30.27421951,-18.19808578,-16.74724579
900,8.377197266,-0.46327579,11.6098299,-28.21345139,18.41322517,-10.00705433
901,7.948500156,-0.512478113,10.02063847,-19.21911812,51.56572723,-5.848543167
902,8.826443672,-0.394572169,9.298445702,-15.5659008,67.72581482,-7.258494854
903,9.131662369,-0.697005093,7.995950699,-18.45691681,60.7121315,-9.059520721
904,8.899905205,-1.528110385,7.420033455,-8.123086929,60.47937775,-9.652709961
905,8.49621582,-1.572211146,8.158319473,7.069302559,58.63564301,-9.508859634
906,6.49434042,-0.979669809,8.218266487,10.52559662,39.16795731,-10.1875658
907,5.399264812,-0.580400169,7.843575478,-7.142141819,30.69132233,-9.744684219
908,4.641109467,-1.22684145,7.77580452,-6.799814701,39.11710358,-10.20601654
909,4.514425755,-1.126702905,9.009056091,-3.389847517,40.21489334,-6.62391758
910,4.306661606,-0.647451341,9.82982254,0.264624894,31.89994049,0.265162796
911,3.790414572,-0.314233243,9.279680252,-0.235612854,43.96073151,4.76941824
912,3.363969326,-0.091736339,8.931903839,-0.405015916,39.54876709,6.639380932
913,3.239049911,0.099490382,9.533333778,-3.799139977,21.56515121,11.0722847
914,2.926460028,-0.049074911,8.208794594,-6.250655651,6.751582623,11.70850182
915,3.475487232,-0.227095634,6.700844765,-8.456431389,18.19790077,10.9244442
916,3.782200575,-0.042179607,6.308126926,-23.87892723,50.68373489,9.735093117
917,3.052682161,-0.392534882,6.144967556,-37.76324081,56.77955627,6.013480186
918,3.148503065,-1.241266251,5.125396729,-17.85911179,54.68542862,0.783610523
919,2.661356688,-1.724797964,4.827923298,-0.239584357,61.28488922,3.430130243
920,2.682581186,-1.796647429,5.075139999,11.96288776,55.72399139,3.88995409
921,1.931981444,-1.954256415,5.89243269,19.68074226,27.21764183,2.405522108
922,0.836833954,-1.703291416,6.753366947,37.98849869,-0.204889834,-2.178333044
923,1.426048517,-0.72269994,7.173613071,39.94517517,-13.96363831,-10.68342304
924,1.237655401,0.318012625,6.994740963,54.90891266,-35.1850853,-14.20300198
925,0.824063659,0.075543121,7.621172428,53.54249573,-44.09160995,-10.74772072
926,1.165577173,0.001266368,7.528584003,37.23127747,-53.05828857,-10.35350132
927,1.606152534,0.176830292,7.345111847,21.56779861,-61.30410385,-7.421339512
928,1.829816699,0.16600658,7.569084644,15.58106041,-84.00833893,4.251132488
929,1.58821094,0.635263443,7.653772831,4.670885563,-112.870842,10.9255209
930,0.714046776,1.09045577,7.243878365,-0.871058345,-123.6106186,12.74895859
931,1.180648565,0.809517324,7.439295769,-2.521900177,-123.9728546,11.06527138
932,2.155470848,-0.15194945,7.561109543,1.510481477,-132.8365173,7.37345314
933,2.12970829,-0.812479794,7.580148697,5.806316853,-139.5309601,-2.076077223
934,1.619114041,-0.877582848,7.567900658,8.68017292,-136.5921936,-8.447511673
935,2.354839802,-0.991197824,6.901717186,13.14366531,-113.0644226,-10.44307232
936,3.45985198,-0.563666165,7.212956905,16.95344543,-84.24463654,-8.625494957
937,3.778208733,-0.066502191,7.590013504,19.37454987,-65.44728088,-3.627278805
938,4.006362915,0.095994443,8.00128746,23.48228455,-58.32245255,-1.727241755
939,3.966863155,0.318690956,8.801448822,23.75862122,-52.18113327,-3.398985624
940,3.575977325,0.548617721,8.801241875,25.52547836,-44.60660934,-4.384551048
941,3.319859982,0.650378346,8.772182465,22.87724686,-37.02875137,-7.76269865
942,4.061088085,-0.032489065,8.93927002,19.01761055,-41.86655426,-8.491622925
943,3.895709991,-0.187295943,8.874694824,0.217331305,-37.48370743,-7.688614368
944,4.843791485,0.348842084,8.653138161,3.351945162,-38.14105606,-4.344115734
945,5.798771381,0.636893153,8.440623283,6.135983944,-38.20603943,1.554884911
946,7.240642071,0.667271793,8.460624695,4.249443054,-36.57858276,4.713355064
947,8.260427475,0.928318202,8.319167137,-5.245320797,-30.85755157,6.24957943
948,8.517138481,0.466827601,8.056785583,-3.635527372,-26.27872849,8.173695564
949,9.078451157,0.185723677,7.864702225,-7.379115105,-8.752123833,10.50179958
950,10.27692795,0.529918015,7.471870422,-10.02707672,-1.231665015,14.95668697
951,10.59791756,0.977215409,7.117776394,-26.85093117,12.8202467,26.67396545
952,9.588220596,-0.495557278,7.768377781,-53.61519241,44.93842697,40.56113052
953,8.019509315,-3.269064426,8.670146942,-68.74859619,66.90206909,47.30924606
954,5.766829967,-5.173797607,9.922609329,-43.87343979,80.37963104,36.04880524
955,5.61555624,-3.674189329,10.47434521,-1.473418236,95.92093658,4.732119083
956,7.321290493,-0.765328348,10.12640762,-5.422428131,109.5879898,-12.1208849
957,9.798296928,1.645706773,10.72519207,-15.84904099,111.0000534,-9.404904366
958,13.16322613,1.608247995,8.407319069,-7.247986794,92.63513947,1.935860276
959,13.82162094,-0.59607923,5.286608219,8.701688766,88.0300293,5.771706104
960,11.82992744,-1.346420765,6.153337002,15.81810856,110.9300461,4.024617672
961,11.46128178,-0.956709266,6.480421543,7.453081131,116.2554779,-1.608656764
962,10.83672237,-0.244363382,5.325906277,15.11023331,96.77906799,-6.520574093
963,9.254826546,0.237629101,6.180598736,18.65765953,84.10098267,-7.365766525
964,7.466219902,-0.198666364,6.785879135,23.95928192,80.53011322,-10.98975277
965,5.489208221,-1.050868273,6.445806503,80.72297668,178.7075806,-21.53309059
966,0.896672428,-1.2873981,7.301865101,51.02533722,298.1988525,-29.88142967
967,-1.949482203,-0.995986104,1.931795716,39.09415436,249.802887,-25.57358551
968,-4.76939249,0.33372581,0.924576759,-32.23983383,221.8703308,-8.95250988
969,-3.474017143,1.509509563,4.18487215,-38.28334427,196.9405365,-5.815792084
970,0.999102831,1.231612086,5.697403431,-41.71731186,171.4458466,-2.63892293
971,-0.416767657,-0.107404977,7.447202206,-56.17601013,147.8598633,1.917017221
972,-2.709111452,-1.242823005,8.461884499,-40.58776474,126.7476196,1.354644299
973,-3.377990007,-0.765517652,7.377188683,-29.63134766,119.9925308,-3.210225344
974,-3.439593792,-0.16076839,6.734282494,-12.69586182,107.9211884,-4.511711597
975,-2.655505896,0.245525599,6.157746792,-5.041021824,73.57899475,-5.89614439
976,-2.263758898,0.140427738,7.787736416,-13.7795887,50.43947983,-7.991458893
977,-1.863566756,-0.507938027,8.300951004,-19.91550255,17.29964828,-4.230473042
978,-3.119891644,-0.666635036,7.951030254,-12.81710243,3.178275585,-2.936638832
979,-3.018447161,-0.792420745,8.350777626,4.610631943,-17.32821846,-9.090381622
980,-3.140348196,-0.49347508,8.690448761,19.62665367,-29.17803192,-17.47209167
981,-2.678039551,0.036521904,9.473219872,23.52877426,-47.17086029,-23.27631378
982,-2.859008074,0.145651907,9.522901535,26.80959702,-70.95191956,-20.98058891
983,-2.175575972,-0.523458898,9.428576469,32.00961685,-103.3301697,-15.82348537
984,-1.973443747,-1.33816433,9.462824821,34.49977112,-123.2755432,-13.79029942
985,-1.1617347,-1.446474552,9.926040649,30.60340309,-139.0364838,-11.99514961
986,-0.469497472,-0.750374377,10.1927309,29.74243736,-147.2109985,-9.54514122
987,-0.049560726,-0.441751331,10.42990971,29.86863327,-153.2135162,-10.3506012
988,1.056251645,0.042697407,10.80132771,27.42348862,-161.2691345,-11.47014809
989,1.818545818,0.321100086,11.18560028,19.16498947,-160.9366302,-5.595830441
990,2.046570301,0.451782852,11.02239513,7.749651432,-154.1911926,0.903762341
991,3.17044878,-0.073337324,11.00716782,-0.403765976,-152.0894012,7.844331264
992,3.951030731,-0.699035525,10.85656261,-10.04679203,-148.1787109,12.86828327
993,3.840478897,-1.8665452,11.83464622,-14.73578835,-128.0695953,8.786716461
994,4.184587955,-2.909909964,11.33548737,-28.74002647,-118.6696167,-4.905935287
995,5.291687012,-2.592442513,11.79781055,-41.48499298,-104.2433395,-19.79733276
996,6.657930374,0.163962096,12.95380116,-27.98132515,-80.95929718,-25.07247734
997,8.394366264,0.399525881,13.20979786,-11.36552715,-49.02075195,-13.91716576
998,8.845458984,-0.371355534,13.04684544,-23.66401863,-25.28131294,-2.685810089
999,7.112920284,-1.475019097,11.56122112,-14.27291203,-24.55216599,7.432155132
1000,6.160344601,-2.208037376,12.12308025,5.702301979,-0.165983111,2.013664007
1001,7.376519203,-1.153093457,12.85502625,-10.78541279,55.30354691,-4.828535557
1002,7.781308174,-0.726484776,11.56541061,-21.47775459,57.41364288,-7.680877209
1003,7.460000992,-0.295637816,9.285406113,-21.86869621,42.74855804,-12.99778938
1004,8.722257614,0.247757971,7.559898853,-27.44732475,41.30205917,-17.87772751
1005,9.802296638,-0.368052453,6.089792728,-20.54409409,36.41015625,-11.89423084
1006,9.330759048,-0.137225017,5.640472412,2.627659082,28.59510422,-2.073520422
1007,7.548417091,0.487682551,6.969865799,-2.218548775,17.1662693,3.515877962
1008,5.562655926,0.702747822,9.064566612,-32.57063293,-13.14253998,8.534697533
1009,3.428490877,0.230016693,7.458910465,-28.63273621,-33.92550278,18.40749359
1010,2.602134228,-0.181746155,7.358535767,2.156562328,2.090686083,25.45703888
1011,3.798544645,-1.129786253,8.222974777,-11.66644001,21.67751694,29.37603188
1012,5.793515205,-2.27128315,7.546001434,-28.3936367,40.02722931,22.14019585
1013,4.00164175,-2.23791194,6.936160088,-34.18265152,46.69947052,11.51270962
1014,2.461758614,-1.543420315,6.247777462,-30.53323364,55.44587326,5.276361942
1015,2.167100191,-0.884935677,6.214038849,-33.09447479,71.77722168,4.377992153
1016,2.382492065,-0.816615105,6.589531422,-29.95689964,86.45298004,7.211475849
1017,1.926378012,-0.898135424,6.615979671,-25.05131149,92.74638367,9.388522148
1018,0.947129965,-1.159353495,6.003901005,2.438809156,85.57323456,11.22831917
1019,1.671447754,-1.887759209,6.70481205,34.18018341,56.64685059,11.25992393
1020,0.454632014,-2.708286285,7.703608036,41.96136475,32.47073746,4.54966116
1021,-0.328034788,-2.512725353,8.123893738,46.35283661,19.83256912,0.253305465
1022,0.435013562,-2.488998652,8.191514969,47.69297791,0.544447124,-4.097411156
1023,0.877863169,-1.862799287,6.855612755,55.87282562,-18.04553604,-8.818572998
1024,-0.041551575,-1.336437106,6.796523571,63.91779327,-27.35271072,-13.37345886
1025,0.813534379,-0.373467356,6.71790266,70.40039825,-49.54764938,-10.37071609
1026,0.530169845,-0.301426947,7.401642323,63.59970856,-68.46372986,-4.70608139
1027,0.484864205,-0.928955734,7.706840992,69.68686676,-84.96620941,-1.424100995
1028,0.906971037,-1.6939255,7.783837795,68.25302124,-95.36379242,-2.993104219
1029,1.120814562,-0.226313323,8.106372833,56.69540405,-111.7563477,-9.359208107
1030,1.414276242,1.745789289,7.602216721,51.45129395,-131.8748016,-11.09764385
1031,2.346598625,2.661059618,7.590015888,49.70745087,-138.3880157,-7.997675896
1032,2.790105343,1.828176856,7.421984673,48.29676056,-136.069809,0.645980537
1033,2.548342943,0.038955815,7.39566946,40.06133652,-132.2145996,8.208407402
1034,3.265900135,0.485244989,7.984516144,31.89427948,-123.1185837,14.79766178
1035,3.547920704,0.672968209,7.808767796,17.02974701,-110.6478424,15.57059097
1036,2.993944883,0.634434462,7.989677429,15.67131901,-93.19922638,14.20689392
1037,3.744327307,1.113045573,8.566267014,7.93108511,-74.38898468,7.0836339
1038,4.744766235,1.172308445,8.364931107,6.802225113,-68.44326782,2.896671772
1039,4.218403339,1.154628038,8.944724083,2.214799166,-55.66371918,1.150041938
1040,4.331683159,0.746159554,9.163568497,8.48601532,-52.74521255,1.95399332
1041,4.745013237,0.653501987,9.187786102,11.88549328,-54.56781769,2.224980593
1042,4.918587208,0.59667033,9.542390823,19.95160484,-51.84888077,-0.435036391
1043,5.605392456,1.079366446,8.818656921,24.94823265,-57.28632736,0.993088484
1044,7.082977772,1.171245575,9.06394577,29.40855789,-50.59580231,4.144242764
1045,8.040625572,0.897605777,9.597219467,14.59226894,-45.57725143,6.013162136
1046,9.249371529,0.896035731,9.398312569,1.032883167,-41.51100922,2.527405977
1047,9.473622322,1.112021089,8.955858231,-6.516159534,-44.06562042,1.296620011
1048,8.803284645,1.700494885,7.212765694,-13.93257427,-42.70069885,3.394392014
1049,8.596698761,2.190872192,4.728351116,-8.548540115,-24.70632553,5.220220089
1050,9.940660477,1.635241866,3.343053579,-0.250991911,14.63139057,8.757931709
1051,10.48974419,-0.644093692,5.762653351,4.327837944,50.40711594,11.11690617
1052,7.289539814,-0.898501754,9.625577927,13.38903332,60.44850159,-2.192310095
1053,8.3412714,0.278367072,10.2017231,-19.00575829,95.09966278,-18.32271004
1054,12.68816471,0.961167634,8.957237244,-60.61447906,103.7885971,-19.5676403
1055,12.09542179,0.178039476,8.433129311,-45.06378174,71.66368103,-14.41581631
1056,11.41890526,0.399978161,6.278934002,-36.07227325,51.91689301,-11.01642609
1057,13.14254761,1.228012443,4.218979836,-36.87378693,67.42591858,-1.141351461
1058,12.37624264,2.249265432,4.085310459,-22.17508698,75.1186676,8.12330246
1059,10.46263599,1.859793663,3.614020348,-22.94258881,76.13517761,12.84113693
1060,8.368061066,1.715146661,3.991899967,-17.78945923,80.22624969,18.06153297
1061,6.074818611,1.761088133,4.506847858,-9.338249207,111.9363403,24.91435814
1062,4.446703911,1.786789775,6.403048992,-3.187911272,160.3593903,24.61102295
1063,2.753031254,0.953566134,6.402672768,-6.603327751,208.8728638,21.30581474
1064,0.282330513,0.445000798,5.813406944,-26.01631737,206.6593323,24.98762321
1065,-1.469548941,-0.085528076,4.82254982,-51.27622986,212.4118347,31.86454391
1066,-1.313631535,-0.474974394,5.943419456,-56.71845627,205.608139,34.37014389
1067,-0.562748969,-1.443131804,7.098001003,-55.93058777,189.4908142,34.1517067
1068,0.97578609,-1.619787097,7.102648258,-47.62896729,186.2955627,28.4459343
1069,0.568930864,-2.046637297,7.290393353,-43.4191246,183.6208344,28.15849495
1070,0.139723048,-1.906332254,6.724948883,-50.99832153,171.720459,26.52871132
1071,-1.627945662,-1.914423823,6.198333263,-31.46891785,162.8983154,23.91237831
1072,-2.174164534,-0.555164039,8.560173988,-5.081940174,148.931778,21.25503159
1073,-3.055256844,-0.552028179,8.268364906,8.591615677,136.1622467,17.03253555
1074,-2.955237865,-0.778651536,7.671421528,-3.191182852,109.1994934,10.22324944
1075,-2.464910746,-0.673212886,7.445409298,18.85633278,99.24920654,6.285499573
1076,-3.135803938,-0.622020781,7.104242802,16.43588066,82.11948395,7.25071907
1077,-3.465465307,-1.341268182,8.639990807,24.94700623,60.70171738,8.85236454
1078,-2.548878431,-1.466929913,8.636668205,18.42317009,31.33740425,9.91354084
1079,-2.78095746,-1.023657203,7.698642731,25.41843224,11.93680191,8.20099926
1080,-3.489178419,-0.736958921,7.839874268,34.48182678,-0.795482635,6.520553589
1081,-3.520987749,-0.356965691,7.826114655,45.29652786,-13.25472832,2.761615276
1082,-2.75532937,-0.153164834,8.338622093,49.09104156,-24.44586563,1.503551841
1083,-1.093698978,0.313996613,9.073763847,48.14881897,-43.26778793,1.899677277
1084,-1.912449241,0.462045074,9.165690422,40.82637024,-57.98936462,6.642049313
1085,-2.399456024,0.23791787,9.383208275,29.52653885,-66.81003571,12.55384064
1086,-1.312205553,-0.042481024,9.501089096,19.91536522,-81.83649445,14.85501099
1087,-1.255448818,0.170584306,9.93479538,16.78019142,-91.40000153,15.11562157
1088,-1.045849323,0.486156791,10.43465233,16.3975811,-101.5205994,11.81811333
1089,-0.807375848,0.702201545,10.36897945,19.99242592,-107.5932083,8.69785881
1090,-0.404912233,0.858466864,10.22036457,18.59434509,-106.8751984,8.08469677
1091,0.197244689,0.661912918,10.48469067,15.69709301,-103.8073349,6.138213634
1092,0.663694859,0.123648211,10.25755405,14.60058308,-101.7239838,4.776082039
1093,0.963025928,-0.008464992,10.45096493,7.185670853,-99.50987244,5.987915039
1094,1.325048685,0.204143777,10.4716444,1.421012282,-101.4529572,7.587584019
1095,1.420848012,0.562681854,10.50099659,-4.012089252,-104.1358032,8.774319649
1096,1.856286168,0.805648029,10.60196114,-9.020545006,-102.6394424,11.97606277
1097,2.373014927,0.783868134,10.6856451,-10.87792397,-97.52531433,14.63394642
1098,2.380851507,0.471478999,10.91219711,-11.99072838,-94.76198578,19.11067581
1099,2.305910349,-0.012068106,11.20370388,-15.14251041,-95.0900116,24.35614777
1100,2.686412096,-0.735619307,11.42042065,-17.78913879,-99.93166351,24.87432671
1101,3.158111095,-0.762442648,11.74539852,-11.97111702,-97.29931641,18.76910019
1102,3.314897299,-0.644893587,12.10237598,-8.699542046,-98.74465942,10.71914196
1103,3.8782897,0.07936985,12.18327141,-13.31801796,-105.2248306,3.956941128
1104,3.738556385,0.110613346,12.34708118,-19.11297226,-112.5241013,3.925230265
1105,4.142630577,-0.248671591,12.29187965,-22.51395607,-116.8320694,3.311381817
1106,5.497245789,-0.620601475,12.3350544,-29.12985229,-104.2704086,5.546244621
1107,6.513032913,-1.479263663,11.14724636,-45.78689194,-72.63497162,10.23238277
1108,6.838135242,-2.363299608,8.465023041,-40.99333954,-55.22529984,7.511530399
1109,7.843031406,-3.007523775,8.766212463,-23.93183708,-14.38756847,-8.56392765
1110,7.768929005,-1.724357843,10.5850544,-18.9361763,43.57281876,-9.890322685
1111,7.324691296,0.017907903,10.44797325,-3.049921036,47.92206573,-4.482835293
1112,8.11153698,0.235098243,9.322630882,-1.998048663,46.00753403,-2.081341743
1113,9.461041451,0.291538507,7.438286304,-21.8795414,29.84282112,-7.862358093
1114,8.916371346,-0.934517801,6.359965324,-28.71821976,24.60930252,-7.576121807
1115,8.142749786,-1.498184919,5.776063442,-9.584713936,29.67696762,-4.197948456
1116,6.734026909,-1.236116529,6.961722851,-2.615102053,26.71220398,-5.22672081
1117,4.991204739,-0.50146538,8.31417942,-2.80956316,19.30271149,-4.858402729
1118,3.607743502,-0.567751527,9.002236366,-9.587173462,11.84617138,1.467064619
1119,3.634738445,-1.48827827,8.153508186,-14.97160721,21.35509682,7.68366909
1120,3.397415638,-2.054399729,8.285652161,-11.30623722,40.71917725,8.087756157
1121,4.311071873,-2.305935621,9.438605309,-11.70353222,48.26806259,6.308649063
1122,4.338489056,-1.997577548,10.17063427,-3.145825624,44.60742188,4.528671265
1123,4.816345692,-1.613636613,9.952029228,14.06473446,33.28851318,3.361125231
1124,4.800793648,-1.415692449,9.431606293,27.35951042,22.98938751,3.089372635
1125,5.169124603,-1.334964633,9.777313232,49.01883316,17.25120354,1.365777969
1126,5.775272846,-0.624484897,9.38056469,57.26000977,19.18525314,1.438190818
1127,4.599718094,-0.170768127,9.246577263,19.55317307,28.28501511,7.783330441
1128,3.074429035,0.284697711,8.622079849,-13.55479813,11.93679619,8.693840027
1129,3.70380497,0.181738034,7.138875484,-27.24504852,-5.050045013,6.100187778
1130,4.166111469,-0.140510425,6.484116554,-34.7529335,3.081790924,-2.296905279
1131,4.027725697,-1.217189193,5.378613472,-29.72041512,23.48233986,-6.553145885
1132,3.80798316,-1.16536665,5.430127144,-13.46772671,26.64522934,-6.787797928
1133,3.971120358,-1.417090416,6.167538643,-8.227280617,13.01632881,-6.211226463
1134,3.568264961,-1.538723946,6.336219311,-6.227729797,5.110254765,-7.598586559
1135,3.484810114,-0.506631434,5.790173054,7.895716667,9.284759521,-9.680598259
1136,3.14999485,-0.52088654,6.671721458,44.81599045,15.78912354,-6.09290123
1137,2.106769562,-0.899279773,7.776861668,82.99752045,5.373797894,-6.460577488
1138,1.440783978,-0.795544803,7.72596693,79.37379456,-14.25461578,-4.67355442
1139,1.988843322,-0.094124615,7.471749306,63.43200684,-27.96236992,-2.891402483
1140,1.891728163,0.095671631,7.853415966,43.44782257,-43.13494873,-2.689497471
1141,1.387185335,-0.109695345,7.605679035,30.51664734,-50.29895782,-2.824449778
1142,1.465969801,-0.018629124,7.514146805,5.749828815,-67.30563354,-2.037381887
1143,1.34002614,0.210565791,6.839965343,-1.353407025,-81.69374847,1.516877413
1144,2.007071018,0.284466833,6.029597759,-12.38967705,-89.19404602,0.250646651
1145,2.552499771,0.077968448,6.219251633,-21.19512939,-94.23807526,1.208158612
1146,2.999732018,-0.092223838,6.93136549,-33.16231537,-103.7505646,2.808927774
1147,2.857158422,0.376422971,7.370397568,-43.42404938,-113.0550156,6.217875957
1148,2.79274106,0.781776905,7.279897213,-39.07290268,-113.6075287,2.860168457
1149,2.966538668,0.317505717,7.471070766,-28.16423607,-105.8352737,0.894337177
1150,2.807006836,0.705063283,6.607569218,-26.09367943,-98.10520935,1.607978821
1151,2.439164162,0.084925428,7.260617256,-4.514704227,-81.58417511,9.293219566
1152,2.486559391,-0.776270032,7.297843933,-1.31744802,-65.70329285,9.8357687
1153,3.259394884,-1.449891686,7.696759701,5.98345089,-58.83293533,7.685397148
1154,3.053474903,-2.091996193,7.643680573,9.63975811,-58.00021744,2.773370266
1155,3.507108212,-2.123726606,8.428728104,2.005345106,-50.15751266,-0.961227596
1156,3.721846581,-1.487280607,8.502636909,2.383179665,-40.61408997,-6.986135006
1157,3.878445864,-1.266552091,8.566717148,15.90814209,-22.65874481,-10.58441734
1158,4.63678503,-1.017812967,8.588236809,8.749254227,-23.95692253,-15.05365181
1159,4.689297676,-0.27197367,8.712949753,8.414987564,-25.16781044,-19.16882133
1160,5.758009911,-0.028835006,8.155426979,10.25827694,-26.57602692,-17.17568398
1161,6.32455492,-1.057533622,8.137965202,17.85050392,-26.67144394,-12.50355721
1162,6.677447796,-1.702142715,8.259256363,28.32126617,-24.6489296,-8.754580498
1163,7.246216774,-1.896743417,8.257082939,40.58102798,-21.00516319,-10.02799892
1164,7.819093704,-1.71697247,8.134533882,51.29125595,-14.91788769,-10.70834637
1165,8.32606411,-0.938465834,8.153460503,52.61310577,-9.322762489,-12.28910255
1166,8.866426468,-0.106520981,8.286793709,51.28083038,-7.754710197,-16.57960701
1167,10.0396595,0.43592748,7.94631958,40.83745575,-7.348185062,-20.26244926
1168,10.60106468,1.101999521,7.393601894,18.781847,-0.351445585,-20.11567688
1169,9.692500114,1.774897814,7.104382515,5.801952362,17.7182312,-21.79801941
1170,8.913028717,3.048561811,5.921075821,3.02122736,40.68737411,-23.89066124
1171,7.363752365,3.237143755,5.78912735,-6.682112217,65.74016571,-8.899860382
1172,6.126873016,1.861490607,6.32221508,-24.45624161,105.1507263,7.151916981
1173,8.625068665,-1.928274274,9.837447166,-3.775066614,119.0943756,10.31944752
1174,9.685838699,-4.555957794,12.61915493,16.02573967,112.0576401,-4.475714684
1175,11.89602566,-4.259086609,10.32574272,25.49099731,80.01948547,-22.99156189
1176,13.52269936,0.637483835,7.092161179,27.14554787,46.79588699,-26.77863884
1177,11.84402657,2.870392084,6.294276237,2.292435408,89.46657562,-15.55632496
1178,11.79087734,2.550542116,7.377229691,-8.558978081,115.7062454,-2.511021614
1179,11.52419281,1.228414655,5.751403809,-10.18575191,94.47234344,4.413023472
1180,9.492978096,0.879974782,5.428282738,-17.19480515,91.60568237,4.520837307
1181,8.856993675,0.99930346,6.847871304,-24.90843582,83.24930573,11.8957119
1182,6.822673321,1.356099725,8.046386719,-15.61574364,65.26321411,20.45169067
1183,5.032927036,1.969931722,7.542574406,-13.78504753,88.93974304,23.30567551
1184,2.685115814,1.988722563,7.831273556,2.063798666,190.3540039,19.36345673
1185,1.084335923,1.091466427,5.693755627,-42.90273285,262.0652771,19.06089783
1186,-0.982494175,-1.033369541,3.742613792,-55.35331726,257.8304749,21.65126991
1187,-1.805596232,-2.42531085,2.992684364,-75.04982758,243.1033783,16.13547897
1188,-0.928979993,-3.077585459,4.989425659,-62.88301849,227.473114,10.89191246
1189,0.965933383,-2.472498655,5.921960354,-28.41104698,210.2255402,7.048331738
1190,-0.994193017,-0.972457886,7.527009964,-37.5028038,188.576767,6.971309185
1191,-2.520736694,-0.038033444,6.802346706,-30.89518356,147.4519348,6.38406086
1192,-2.632814407,-0.302979201,7.341168404,-21.72259521,122.9192276,3.735836506
1193,-3.051329374,-0.393078566,6.906545162,-15.89167309,107.0084381,4.858283043
1194,-2.951391935,-1.309317827,6.8597188,-4.088508129,85.91411591,3.115398884
1195,-2.32325387,-1.17907548,6.405073166,2.044396877,56.60849762,-0.585884333
1196,-2.993522644,-0.866418898,7.200621605,2.28578186,32.39687347,-1.627206564
1197,-3.737198353,-0.44041568,7.85076189,-3.135316372,12.24266624,-2.76773572
1198,-3.294091225,-0.558470249,8.285495758,-11.69386673,0.993536174,-2.863834143
1199,-2.624435186,-1.174263358,8.224825859,-4.595459938,-13.90139294,-2.304350853
1200,-3.336251974,-1.035272479,8.013634682,16.63615799,-26.46045113,-5.367250919
1201,-3.015016317,-0.632912159,8.54310894,32.49793625,-39.01756668,-8.96588707
1202,-2.159849882,-0.669148326,8.911751747,39.06689453,-59.04040146,-11.84266758
1203,-2.405774117,-0.862625957,9.316650391,35.47596359,-82.41345978,-12.5914135
1204,-2.621851921,-1.072534561,10.12422371,26.34325027,-103.2324982,-16.79799652
1205,-2.06047821,-0.976617754,10.53787613,17.17386246,-122.4994583,-19.31355476
1206,-1.176051617,-0.34364444,10.78948116,15.06879234,-139.9891205,-16.40020561
1207,-0.104164183,-0.145680785,10.51654339,16.40815735,-144.7033691,-12.3086462
1208,0.518769622,-0.036593694,10.79662418,19.40255737,-150.6856384,-7.784526348
1209,0.68290174,-0.158161744,11.12551594,24.04978752,-151.7340698,-5.64849329
1210,1.490594864,-0.294424176,11.23121071,29.76288414,-154.509903,-4.646267414
1211,2.485132456,-0.327244192,10.25148869,37.0303688,-155.6932678,-1.739655972
1212,3.141776562,-0.6149894,9.654067039,32.12948608,-136.6478271,2.460814953
1213,3.700386524,-0.615802526,9.779281616,22.89493179,-112.3523636,-0.705777884
1214,5.160141945,-0.590017557,10.01481724,20.74255943,-99.86162567,-2.791707277
1215,5.531862259,-0.137251243,10.95307827,17.33395386,-95.70036316,-2.003633022
1216,4.909388542,-0.121284239,12.6361599,19.0708847,-100.1171265,-2.794704199
1217,4.28371191,-0.071709871,14.10454464,15.60798454,-105.1130219,-5.265323162
1218,5.501197338,0.093152829,14.34701824,2.969687939,-112.4526291,-0.851532161
1219,6.359202862,-0.476749986,13.21219635,-16.40995598,-114.1885452,5.176460743
1220,6.804766178,-1.169502974,11.54325771,-27.60346603,-93.57098389,3.731595039
1221,8.61452961,-1.380664468,10.80409431,2.710625648,-54.01472092,-3.025889397
1222,9.015683174,0.146939024,12.18675327,3.585582972,-7.944785595,-14.05545616
1223,8.117526054,1.160891652,12.63259029,1.057109356,25.1912899,-11.76716995
1224,6.91296339,0.185556099,11.7080431,12.52013397,39.82344818,-1.933642387
1225,8.771523476,0.231336296,9.626332283,0.321665734,44.34579086,-4.09585762
1226,11.00481129,0.454968899,7.098959446,-24.66843796,32.46254349,-16.2926712
1227,11.01374912,0.00553019,6.427539349,-29.49188232,11.3452816,-19.54442787
1228,9.601530075,0.056419026,6.954144955,-17.2014637,-9.232546806,-6.323823452
1229,7.086659908,0.881687641,8.176228523,-26.4849987,-13.4395504,-3.448901415
1230,5.691809177,0.658393741,8.664564133,-38.93115616,-18.06217957,-3.376134157
1231,5.281613827,0.245026946,8.408159256,-35.51890182,-21.7560482,2.557962656
1232,4.758951187,-0.264638662,7.898682117,-17.56791306,-8.529352188,14.37740326
1233,4.150952339,-1.053946257,7.643546581,-20.73869705,10.93117809,13.96042538
1234,3.56139183,-2.142490864,6.494704723,-21.79735184,36.2976799,2.376930952
1235,2.687238216,-1.85638392,5.443327904,-54.36395264,53.08174515,-5.153585434
1236,2.699200392,0.065258533,2.708454847,-64.52825928,77.79870605,-1.871651411
1237,2.447321415,0.594021201,3.250100136,-45.13845825,76.01225281,10.3069706
1238,1.866982579,0.097286567,5.404530048,-35.98152542,72.28431702,14.97480202
1239,2.194171906,-0.99920547,6.548812866,-19.94651413,75.03349304,13.04850006
1240,2.023053169,-2.090891361,6.587299824,-5.123811245,70.20738983,12.66222
1241,0.822299421,-1.74115169,6.037996292,19.24227333,55.68997192,9.704050064
1242,0.907357097,-1.314007044,5.714358807,27.2823391,49.41356659,9.410027504
1243,0.506415248,-0.782202661,5.889993668,37.97431564,39.38554764,4.87698555
1244,0.638227642,-1.534906149,6.384648323,39.12106323,32.73991776,3.422714233
1245,0.814337611,-1.253742933,6.910467625,37.64215469,15.25730705,1.275564551
1246,1.429030776,-0.05654243,6.894295216,21.05773735,-4.949777126,1.563484907
1247,1.290423393,0.343533128,6.875082016,7.32272625,-18.75365829,5.85528326
1248,1.42753768,-0.078045145,7.281191826,0.879254341,-27.84292412,4.364768028
1249,1.407042742,-0.503164709,7.447484016,6.258160114,-39.87057114,3.328946352
1250,1.109963894,-0.201662242,7.309223175,15.03275681,-55.19003677,-0.558068633
1251,0.785398841,0.384227991,7.454604626,20.03033447,-68.29445648,-6.66174078
1252,1.047400355,0.059782788,8.183024406,29.96140289,-78.74220276,-7.379742146
1253,1.329096079,-0.681797981,8.583982468,39.32638168,-98.35710907,-6.880125999
1254,1.046289563,-0.546017885,8.66159153,50.57736969,-103.1861115,-11.99862766
1255,1.58277905,-0.448470175,8.623134613,55.8932991,-106.8911362,-11.95515537
1256,2.107743263,-0.598628521,8.680114746,53.96922684,-101.3015442,-9.91392231
1257,2.654593706,-0.1539132,8.456318855,38.60898209,-93.92970276,-4.706479549
1258,3.214843273,-0.311229646,8.770443916,25.71058846,-83.03011322,-1.719067693
1259,3.745459318,0.242409438,8.552726746,6.155513763,-70.97832489,-0.275597543
1260,4.084242344,-0.085794531,9.381822586,0.529940367,-61.71502686,2.277569532
1261,4.253774166,-0.916329682,9.475146294,-11.82051182,-58.32327271,5.882164955
1262,4.025959969,-1.200819254,10.22526264,-20.32756805,-47.54522324,2.628982544
1263,4.955214024,-0.468898952,10.00600052,-19.13359451,-45.92745209,-0.216275528
1264,5.591647148,0.438939244,9.363201141,-14.96036339,-40.56046677,-4.491831779
1265,6.600802422,0.156569302,9.135583878,-10.15855503,-33.84710693,-5.014937878
1266,7.19153738,-0.221438557,8.513256073,-0.399098188,-27.83189774,-4.371945858
1267,7.492899418,-0.420701295,8.313058853,3.045936584,-18.65573692,-2.048736811
1268,7.511417389,-0.520561993,8.546185493,10.75637054,-18.22690773,-2.427217007
1269,8.081766129,0.07382194,8.647130013,13.47214794,-19.65439415,-6.871363163
1270,8.540179253,0.465422332,8.608224869,18.24297523,-23.61734962,-10.34453297
1271,8.250926018,0.810637832,8.65669632,19.41533279,-26.6294136,-8.053331375
1272,7.420363903,1.235905409,7.87873745,7.508937836,-24.68574715,2.545441151
1273,7.814818859,-0.592491508,7.577908993,-20.67206383,-11.45221615,3.782100439
1274,6.863917828,-1.954784155,8.920102119,-34.29315186,20.20785141,-5.131085396
1275,8.001461029,-0.8423118,11.05394745,-21.92738724,48.28261948,-10.44688606
1276,10.73085308,-1.262476683,9.766572952,5.172588348,70.72794342,-17.50540543
1277,11.31663895,0.62914139,8.996994972,4.305883884,85.52010345,-12.55229664
1278,10.67042065,1.629383564,8.230932236,1.049296021,85.29599762,2.96253705
1279,10.64760876,1.458374858,6.565716267,1.25210619,89.85772705,6.368580818
1280,10.63544559,-0.128384203,6.451176643,-4.820702553,101.0500031,7.978664398
1281,10.15983963,-0.26567021,6.354493618,10.46556759,89.39576721,9.39063549
1282,9.03740406,0.739999115,6.111132145,13.55003166,71.12580109,10.51357651
1283,7.299679279,0.871011257,5.423139095,-4.449163914,91.84182739,14.02019691
1284,5.055248737,1.396775842,6.992994785,-43.60457611,167.8384247,20.75805092
1285,2.995280266,1.250483036,7.271356583,-68.0435791,229.2459564,32.05162048
1286,-0.005269676,0.511852086,5.658849716,-81.09414673,230.2124634,40.10929108
1287,-2.643525839,0.301796883,1.630029678,-46.22474289,224.3325043,37.89740372
1288,-2.381996155,-0.627531648,3.583556414,-20.0674305,201.8269348,34.09345245
1289,-0.255725235,-0.799111843,5.560696602,-22.73658371,175.0784607,38.07457352
1290,0.4681108,-2.134611368,5.968775272,-24.64373589,163.012619,34.1445961
1291,-0.218173102,-2.268344164,7.516126633,-32.56322098,148.0842133,25.75914383
1292,-1.112008572,-2.114791155,6.734851837,-10.38336086,140.4426727,20.83070183
1293,-1.960618377,-2.074244738,8.904956818,7.514777184,125.7882462,16.56601524
1294,-3.465136051,-2.112527132,8.830216408,8.964525223,109.0624695,10.26117134
1295,-3.337443829,-1.703116417,8.568772316,10.74293804,88.11869049,2.300974607
1296,-2.943969727,-1.504326344,8.224054337,8.636270523,74.93001556,-6.351411819
1297,-2.634103537,-1.57248044,8.051267624,15.63138294,57.0112114,-11.55510044
1298,-2.803093672,-0.868863463,7.685979843,20.34110069,37.73977661,-13.34528255
1299,-2.171057463,0.164205909,7.561678886,14.87973309,12.37137413,-13.28421783
1300,-2.677241325,0.571194053,8.048701286,25.25530052,-2.760377884,-12.73336411
1301,-2.334702253,-0.047470536,8.264910698,39.86520767,-15.79968929,-13.17098808
1302,-1.866131186,-0.409125686,9.354511261,51.66539383,-27.68187141,-12.45301151
1303,-1.679538846,0.037199367,9.339734077,50.22645187,-43.64409637,-10.18486023
1304,-2.467098951,0.638111711,9.645540237,44.48406601,-58.72691727,-5.918542862
1305,-1.923299074,0.747282863,9.130936623,36.08934021,-76.12258911,1.340736628
1306,-1.259409785,0.151378334,9.175192833,32.33868027,-87.01438904,7.288015842
1307,-1.03337574,-0.130581737,9.793339729,34.13673019,-95.96707916,10.1757946
1308,-0.852087557,-0.493570775,10.53773975,31.11107826,-109.4879456,12.80680847
1309,-0.483155578,-0.581746578,10.75594616,20.4385891,-123.0945206,13.97562027
1310,0.250194997,-0.814806163,10.77191925,7.796037674,-132.0821228,13.40376377
1311,0.941784501,-0.908468068,10.58977604,-0.868392825,-137.6882782,12.32560158
1312,1.075428605,-0.779200435,10.45722675,-6.247252941,-137.1904144,11.52552032
1313,1.759760022,-0.224945858,10.07729435,-6.931691647,-132.8062439,10.04013443
1314,2.240840435,0.309838325,9.870306969,-6.1557374,-126.9563217,9.52159977
1315,2.706558466,0.958138764,10.17699146,-3.946248531,-116.3800964,10.31258392
1316,2.976982117,1.280717134,10.37013626,4.810960293,-107.2954559,12.12029266
1317,3.522059202,1.364775181,10.40630054,12.02967262,-99.5170517,11.3362999
1318,4.091047764,0.882873893,11.2097578,32.24210358,-81.82919312,4.773460388
1319,3.859228373,-1.37615335,12.28762913,40.87088394,-86.5351181,16.72215843
1320,4.110362053,-1.905592442,12.34692955,28.08345032,-86.58639526,17.0700798
1321,5.37450695,-0.804480255,11.53461647,6.996633053,-88.6391983,8.512831688
1322,6.215634346,-0.005053297,11.25021172,-22.38454819,-74.91552734,4.196328163
1323,5.799277782,-0.722634494,11.6394949,-27.5972023,-46.92140198,1.863708258
1324,6.141313076,-1.728243232,10.88695812,-15.61418819,-17.74734497,2.904479742
1325,6.312191963,-0.852348804,10.76663494,1.636556864,16.44328499,-2.967502832
1326,5.873274326,-0.476171166,11.04473019,-6.68114996,51.59568405,-7.721292496
1327,6.986590385,-0.653275847,10.00675011,-11.54866886,52.51550293,-8.132846832
1328,7.935909271,-0.291575074,8.57957077,-12.09153843,40.70599365,-9.668242455
1329,8.261074066,0.947502255,6.927377701,-19.09747124,25.64043999,-23.17218971
1330,7.606185436,-0.711852312,6.315897465,-19.50176811,17.72730446,-28.76738167
1331,6.327384472,-0.867838979,7.277918816,8.74681282,8.136397362,-21.91291428
1332,4.525154591,-0.551849782,7.592701912,20.43510056,-10.90859127,-13.73641968
1333,3.109561205,-0.024161471,7.758897781,12.48139095,-0.518337488,-9.674769402
1334,2.438729525,0.470805258,8.522868156,1.737662435,9.896616936,-4.679480553
1335,2.187203169,1.05532074,9.895684242,-4.90876627,10.68008423,1.829330683
1336,3.3651371,0.786353409,10.43625164,-11.01552868,-0.931393445,4.218701839
1337,4.254461765,-0.254484773,10.058568,-5.223598003,-11.00413227,4.161317348
1338,4.591956139,-0.513580978,9.797974586,2.313321829,-16.27555466,2.62502861
1339,5.040204048,-0.221990347,9.302949905,-1.153968573,-17.72172737,-1.643773556
1340,5.267560959,0.174353078,8.828402519,-5.584149361,-14.01745605,-3.584641218
1341,5.075921535,0.658777535,8.497035027,-10.54987812,-4.997309685,4.138521671
1342,4.961346149,0.449887216,8.521233559,-32.45515823,-8.786144257,13.63061237
1343,4.523532867,-0.110096268,7.249708176,-53.32088089,-18.71550369,9.268336296
1344,4.39086628,-0.938498795,7.091322899,-60.25937271,-18.10220528,5.701050282
1345,4.326883793,-1.410997272,6.031393051,-45.65604019,-7.456053257,-2.058021307
1346,4.534162998,-1.15987277,5.983505726,-11.04541302,13.45147896,-3.41814661
1347,3.679434776,-0.975712955,5.966507435,17.41730118,29.6378231,-2.039406776
1348,3.305535793,-0.502251863,5.565383911,24.71796799,40.7311821,-3.141870737
1349,2.540650368,-0.640468597,6.415162563,28.49250031,37.36972427,-3.838733196
1350,1.968699217,-0.705909371,7.125081539,16.90922546,22.022995,-6.558085918
1351,1.82308805,-0.534528315,7.115824223,16.858284,4.684216976,-10.53093338
1352,1.891544938,-0.533374012,7.277156353,13.82936478,-15.07365036,-11.387887
1353,1.424746156,-0.156878978,7.044390678,7.071153641,-33.14006042,-13.34253597
1354,1.925091982,0.221163034,7.067871094,1.394751191,-58.77638245,-15.89003277
1355,2.458312511,0.61790204,7.116030216,1.819030762,-73.44223785,-15.2365675
1356,2.475997448,0.576075852,7.262618542,5.393689156,-79.51467133,-8.056746483
1357,2.352022171,0.328331113,7.474461079,9.824099541,-82.3035965,-3.601835489
1358,1.951147914,0.703047514,7.408799171,11.38289165,-88.69971466,-1.973629236
1359,2.169365883,1.671588659,6.19098711,8.552723885,-97.82741547,-0.774618447
1360,1.829690933,-0.136619449,6.991538525,40.10121155,-109.5971603,-0.81905663
1361,2.315972567,-1.704744458,7.136480808,41.01712418,-105.8440857,-3.108728409
1362,2.754581451,-1.417378187,7.381755352,40.33385086,-89.65592194,-5.389146805
1363,2.757698536,0.094910771,8.102690697,50.78069305,-74.05895996,-7.040082455
1364,3.331851482,0.504434764,8.27206707,49.99685287,-66.57970428,-8.980804443
1365,3.553819895,-0.158220038,8.020402908,52.23523331,-62.42725372,-11.21084404
1366,3.175403833,-0.085566133,7.907875061,37.4462204,-49.30845642,-13.36369228
1367,4.169808388,0.704604864,8.091175079,18.2245388,-35.72888184,-10.80540943
1368,4.670277119,1.546706557,8.625276566,1.467904568,-38.99801254,-13.03284168
1369,4.845018864,0.878087699,8.616164207,-5.683069229,-38.05708694,-14.34349155
1370,5.24217701,0.515716076,8.689642906,-14.53600025,-40.7828598,-10.0464592
1371,6.1041646,0.476755083,8.541625977,-16.67974472,-45.87745667,-5.825773239
1372,6.842103004,0.126075745,8.322109222,-18.69792747,-45.26442719,-2.219244003
1373,7.623783588,-0.709438622,7.671654224,-18.76972008,-38.03338242,-0.636735797
1374,8.432641029,-1.2687397,7.304652214,-15.32359123,-30.76769066,-3.523144007
1375,9.181861877,-0.28063792,7.520845413,-10.99423027,-25.44161415,-7.866156578
1376,9.889146805,1.282505989,8.192690849,-8.037630081,-23.11523438,-9.020609856
1377,9.725613594,1.989687443,8.82875061,-5.252595425,-19.07715797,-3.194189548
1378,10.09327793,1.588985085,7.732493401,-9.892533302,-13.93634796,8.075726509
1379,9.448190689,0.037474342,6.413852215,-17.86500931,0.343473375,15.21747684
1380,7.152498722,-1.348228216,7.27132082,-15.03847313,36.50231934,13.4691925
1381,8.492832184,-1.304509282,9.159096718,-12.15066242,62.97752762,6.282572746
1382,11.6936245,-1.476130724,9.780683517,-5.674527645,74.30456543,-0.385978103
1383,12.39781094,-0.696561694,8.739206314,-1.434072971,58.85029602,-8.374470711
1384,13.11378384,0.738130987,6.961695194,-1.384015322,38.46178436,-10.48841953
1385,12.95644474,2.418212652,5.013132095,-6.250111103,62.42214584,-5.958992481
1386,13.18933296,0.587796926,4.74898243,-0.626804352,102.4412842,-2.31629324
1387,12.23528385,-0.178250313,6.287969589,13.60571098,108.4703674,-0.935146213
1388,11.77369118,0.47989583,5.664103508,10.2942915,93.61740875,-7.21424818
1389,10.604002,0.576668739,5.645433426,-13.47583485,78.16583252,-8.773570061
1390,8.24404335,0.777385592,7.554028034,-22.96623993,64.40775299,-3.025550127
1391,6.122534275,1.023959279,9.24563694,-31.4145031,48.74621582,3.783854008
1392,4.927686691,0.818904877,7.482335091,-42.60474396,77.63660431,8.404345512
1393,3.652328253,0.954640806,6.826997757,-38.60805893,146.8834076,11.97803593
1394,2.61402607,0.6310274,5.054771423,-32.19996262,199.3996429,11.73290443
1395,1.958721638,0.002920364,4.215601921,-19.67778587,227.5546417,14.15203476
1396,2.51903677,-0.292993724,4.508331299,-8.607354164,234.5171204,15.08446121
1397,2.193903685,-0.007312507,5.067441463,-11.81460953,241.544754,12.64138603
1398,1.055836439,-1.015677929,5.459062099,-17.49983025,242.4642944,13.47610092
1399,-0.664331555,-1.640733838,6.199383259,-18.94639397,230.8058167,9.171664238
1400,-1.580197811,-1.273464322,6.489561081,-22.41369438,207.0225525,6.414587021
1401,-1.399027348,-0.249113947,6.711578369,-14.67115402,185.3117371,5.815041065
1402,-2.15158844,-0.253750443,6.661427021,-0.880086124,165.3270874,8.016262054
1403,-2.912498236,-1.126519799,7.428250313,-2.648635626,143.6307526,8.22612381
1404,-2.879229784,-1.642136097,7.720101357,-4.240089893,116.1157684,1.349449992
1405,-2.630032301,-0.697627246,7.152508259,-3.66509366,85.97133636,-4.709542751
1406,-2.528688908,0.107659027,7.919730663,-9.236304283,60.04176712,-8.587870598
1407,-3.412968636,0.144750029,8.269688606,-11.21518517,38.50938416,-3.934094191
1408,-3.474328756,-0.182238445,8.28664875,0.053063199,22.00204468,-1.140279293
1409,-3.41110158,-0.188288465,8.172716141,20.37763786,11.27758217,-2.875620127
1410,-2.569673777,0.042464107,8.274477959,28.52246094,-1.592333794,-6.621901989
1411,-1.618948817,0.216982543,8.141183853,31.1205349,-20.53825951,-6.009998322
1412,-1.529628634,0.454873562,8.885409355,29.16204643,-40.41633606,-2.319185972
1413,-2.484551907,0.279056013,9.236430168,15.84884071,-68.31443787,-2.916402102
1414,-3.040105104,-0.161943868,9.642652512,5.934039593,-86.61639404,-7.692930222
1415,-2.72279501,-0.322975516,10.10021019,-0.81775564,-104.6488037,-7.496244431
1416,-2.356059313,-0.90868938,10.56017017,0.361561924,-123.7805252,-1.950063825
1417,-1.855501413,-1.453428864,10.70643044,-0.705541134,-144.8305969,0.51578182
1418,-0.717754245,-1.698887467,9.747128487,3.3438375,-155.4451447,-3.286031008
1419,0.03810975,-2.212661982,10.11921978,2.997474194,-155.5150604,-10.69929028
1420,1.357809067,-0.892736256,10.26252937,13.09382915,-166.1769104,-11.72152519
1421,1.675099611,0.395552814,10.47197533,19.4059906,-172.8213043,-8.014953613
1422,2.515207767,1.214249492,10.63115406,19.43316841,-173.5716858,-1.700712204
1423,3.52093482,0.754115105,10.90829182,18.09866714,-172.8705902,4.501636982
1424,4.390439987,0.379647583,10.93704605,17.28549004,-171.6529999,6.987565041
1425,5.331933975,-0.169679597,11.32474422,13.36457634,-169.4916077,5.163860321
1426,6.808942318,-0.342893481,12.14328861,3.699254751,-167.1762848,0.472453624
1427,6.564968586,0.081679754,12.77811909,1.8001405,-153.9548187,2.48369813
1428,6.029165268,-0.676666617,12.49287605,9.994566917,-125.8910828,5.212790489
1429,7.386002064,-1.100093603,12.61403275,10.86895561,-78.33824921,-2.644799471
1430,9.305898666,-1.704887271,10.25356865,-21.08568764,-55.50428772,-5.58516264
1431,9.044003487,-1.328606844,10.45497704,-23.62607574,-25.53562546,-1.696617961
1432,8.77534008,-1.848867178,12.09271336,-10.81928921,28.90118027,0.77173245
1433,9.804104805,-0.905201852,12.15230179,-5.026407242,62.11207962,3.731302977
1434,9.760620117,0.692965925,10.01826477,-23.22692108,41.26208496,-1.619670391
1435,10.9563055,0.250900954,6.914452553,-33.50853729,37.95192719,-13.70169735
1436,11.3721981,0.043590866,6.341943264,-21.11698341,33.54876328,-18.20970345
1437,11.40593815,1.272918105,6.056313992,-24.9048481,8.294703484,-13.39831161
1438,9.16069603,1.245647669,5.291661739,-42.39341736,-6.857001781,-9.127405167
1439,6.900613308,-0.056935366,6.35012579,-57.25160217,-23.66160011,-3.650038719
1440,5.23936224,-0.315242499,6.651952744,-47.29378891,-24.62166405,8.349191666
1441,3.649121523,-0.503333747,6.105492592,-25.80509567,-5.137173653,22.48869133
1442,3.306567669,-1.006079555,5.612539768,-11.37313461,19.68742752,25.36582565
1443,4.130424976,-2.068035126,5.735339165,3.89805913,52.86893463,19.05866623
1444,3.168872833,-2.893242359,5.894580841,14.22728443,91.66204834,9.301721573
1445,1.929531097,-2.23081851,4.832174778,17.60529518,120.7361908,5.200413227
1446,1.952124,-2.001609564,6.005857468,-13.08871174,133.3646698,16.6472683
1447,1.237970352,-2.106332064,6.574441433,-61.1090889,140.3446045,20.7895565
1448,0.827751696,-1.89464581,7.790512085,-45.81400299,116.6709442,9.166150093
1449,0.583881438,-1.226540089,7.778407097,-7.211398125,97.92795563,2.669811487
1450,0.751033783,-0.924999297,6.938699722,11.94783878,62.89052582,-3.17462492
1451,0.56366545,-0.927180469,6.460571766,20.53543472,50.46099091,-6.811128616
1452,-0.124122038,-0.726182699,5.984316826,23.4359169,40.33747864,-10.81731606
1453,-0.007607075,-0.445975602,6.408493996,32.84026718,13.94633198,-13.05187511
1454,0.908053994,-0.145922482,6.589769363,46.44145203,3.074374199,-7.825932503
1455,1.125062108,-0.334845483,7.09691,48.58163834,-6.800523758,-2.319723606
1456,0.716935456,-0.335522115,7.143256187,43.10399246,-16.50307846,-0.202956557
1457,0.179642856,-0.564334333,7.118089676,40.56116104,-28.04622269,1.798712015
1458,0.517480552,-0.855723202,7.514574051,34.30150986,-41.68487549,2.598813057
1459,1.186558366,-0.663132071,8.076788902,31.25012398,-55.5457077,-0.114131808
1460,1.309669733,-0.372717619,8.385219574,27.321558,-62.28738403,0.235608652
1461,1.524359822,-0.063876174,9.04873848,22.38401985,-72.07540131,-0.349966109
1462,1.346405625,0.396563888,9.715653419,17.77858162,-81.99575043,0.707958996
1463,1.471675158,0.597893178,10.12141514,14.27064133,-84.2711792,1.306069851
1464,1.355806351,-0.153746009,10.01313877,17.88342667,-87.6973877,-0.896982074
1465,1.786559582,-0.110391133,9.554455757,28.94769478,-74.39175415,-2.420582771
1466,1.930645466,-0.763775766,7.244054317,32.93704224,-48.2876091,-0.124107845
1467,1.880942941,0.311920911,8.026940346,23.40045547,-31.17861938,-2.912666082
1468,1.892042398,-0.471224427,8.545805931,34.39342499,-33.30607605,-4.481938362
1469,2.098919392,-0.716491222,8.301008224,40.67891693,-36.21461868,0.110347055
1470,2.450330257,-1.028419256,9.236909866,43.30144501,-37.21264267,3.21355319
1471,2.450964928,-1.116753936,8.975668907,31.60007477,-42.93845367,-2.566008091
1472,2.553622246,0.527749419,8.790755272,21.88316727,-40.35135269,-9.944834709
1473,3.369151115,1.86913538,8.913978577,11.99039936,-43.65409088,-7.801365376
1474,4.330451488,1.782025218,9.15917778,4.791211605,-49.92609787,-1.826534748
1475,4.973137379,1.499918818,9.681372643,-2.6252563,-58.44544983,2.690178871
1476,5.377921581,1.29693985,9.872336388,-11.63918972,-62.13168335,6.384817123
1477,5.900483608,0.559785187,9.816189766,-17.48748398,-60.38562012,8.186031342
1478,6.534468174,-0.395012319,9.932408333,-14.31415939,-59.94501877,6.905039787
1479,6.576645374,-0.89166528,9.753205299,-12.26844501,-63.13600159,5.169275284
1480,6.803218842,-0.505618155,9.567525864,-9.615172386,-63.48005295,4.693358421
1481,7.43955183,-0.538400054,9.618923187,-10.61262321,-63.43861389,1.0681355
1482,8.634346008,-0.231549427,9.161986351,-15.59050655,-66.85890961,-5.26059103
1483,7.804365635,0.937107205,8.603134155,-23.3523407,-58.49120712,-6.953319073
1484,6.55598402,1.525936127,8.913402557,-32.71279526,-28.38857269,2.225969553
1485,7.156947613,0.804965556,11.04922485,-43.4354248,11.16153812,8.888190269
1486,9.339591026,-0.469366968,11.1504879,-36.38765335,23.50835609,6.869761944
1487,9.68772316,-0.163074076,9.782271385,-27.12955666,45.92907715,5.198080063
1488,9.794335365,-0.355827481,8.179672241,-26.61584663,74.4841156,5.985429764
1489,10.72184563,-0.113862045,6.748720646,-24.53406525,93.54064941,8.909718513
1490,10.60128212,0.24391605,6.242218494,-21.40895653,102.0507965,7.688416004
1491,10.93828392,0.048540749,6.178517342,-18.49040794,109.7552567,1.692259908
1492,12.09945869,0.199201763,5.642993927,-9.269769669,103.7219925,0.555733621
1493,11.57595634,0.227403119,4.633172512,0.860997498,81.82971954,1.954928875
1494,9.506441116,-0.224917874,4.13608551,-4.612037182,72.64608765,2.655029774
1495,7.670641422,-0.13360253,5.507372379,-13.32414818,109.727005,4.325640202
1496,6.005548477,0.162344933,7.302093983,-50.96704865,206.687561,9.315748215
1497,0.356975138,-0.778687298,3.195958614,-67.20463562,281.3001709,15.99352646
1498,-3.763541937,0.560254991,-1.273470163,-57.17918015,247.3819885,3.574071884
1499,-4.70402813,-1.602745652,1.376477838,16.21213722,212.4900208,-5.857370853
1500,-1.336678863,-2.860304356,5.503281593,8.328445435,171.3586884,-7.008529663
1501,0.276490599,-2.437637091,5.622171402,27.02856064,137.8304749,-13.09004402
1502,0.225883022,-2.240717888,7.052566528,41.57698059,130.427536,-9.470272064
1503,-1.367705941,-1.143659472,8.096144676,13.65958786,127.9512711,-10.75067902
1504,-3.103080034,-0.171295747,8.943341255,14.49814415,112.0113449,-12.46283531
1505,-3.591779232,-0.176304325,9.130957603,26.19962883,92.42507935,-12.24531174
1506,-2.862997055,-1.595098257,8.433038712,26.91039658,73.93792725,-11.68195629
1507,-2.834251642,-2.401235342,8.458144188,15.1560564,65.25088501,-11.39117908
1508,-2.246047735,-1.289240956,8.841602325,14.15286636,42.01371765,-8.562604904
1509,-1.191864252,0.125819892,8.270974159,33.80914307,17.12448692,-2.975826263
1510,-1.909397125,-0.869093895,8.637634277,54.61769867,-4.14876318,0.89087677
1511,-2.045851231,-0.951118946,8.85182476,53.97976685,-27.43076134,-1.680675864
1512,-1.597215056,-0.191723257,8.761347771,49.07993698,-42.48316193,-4.424903393
1513,-1.997327209,-0.044783652,9.178389549,43.91925812,-57.72851944,-5.74813509
1514,-2.155139923,0.259788901,9.891868591,30.22714233,-74.06784058,-3.750026941
1515,-1.5596416,0.328303725,9.773265839,22.94137955,-85.64450836,1.824046254
1516,-1.159417987,0.183234125,10.31619835,20.88063431,-97.02133179,8.126808167
1517,-0.810741425,0.067734003,10.78284645,15.64029503,-113.2832108,9.242905617
1518,-0.456477463,-0.139834046,11.11345005,4.255656242,-119.6124496,7.286201477
1519,0.61999929,0.12256062,11.12276268,-4.674135208,-123.669075,2.43751955
1520,0.903400779,1.013275862,10.893363,-6.75366354,-125.3252563,1.600940585
1521,1.174197316,1.393477082,11.05215549,-11.53538322,-123.5297928,3.451172352
1522,1.297956467,0.910923541,10.7536335,-14.71114635,-120.3450012,2.952099323
1523,2.081033707,0.501912057,10.5695076,-12.60258389,-116.4032974,1.510486126
1524,2.897819281,0.373487651,10.03449535,-3.753819466,-115.3408051,-0.490851969
1525,3.377324104,0.639442563,9.66963768,-1.323851466,-112.4509659,-3.375648737
1526,4.09634161,1.239153862,9.69448185,-4.13795805,-105.487114,-2.54519558
1527,4.711521149,0.920253932,10.20790005,-4.78128624,-86.13426971,1.013988495
1528,4.977166176,-1.133684874,11.11138821,22.95962715,-62.54868698,-4.575574875
1529,5.39562273,-3.036073208,12.78330708,52.84555435,-62.0538826,-10.18851185
1530,4.747478962,-1.974865437,13.64441586,45.82048416,-74.58139038,-6.872495651
1531,4.919877052,0.582769394,13.80089855,30.66417313,-63.36660385,3.314706326
1532,6.390749454,1.773825049,11.85979557,15.70635796,-39.16427612,12.87942791
1533,7.62721777,-0.076002702,9.683325768,0.21823962,-16.88340759,1.0062536
1534,8.03762722,-0.1122922,9.359654427,-28.60790825,21.27649117,-17.59665108
1535,7.409150124,1.065974593,9.942799568,-27.15237045,52.96120453,-15.55745029
1536,6.818860531,1.249408126,10.51071358,-17.0170536,72.41858673,-6.565790653
1537,7.852804661,1.14549458,9.037472725,-17.60077667,50.37496948,0.275294453
1538,8.017299652,0.48214829,8.71100235,-26.85418129,37.79988098,-0.521311998
1539,7.418663979,0.330255926,8.607721329,-29.08527756,33.2325058,-4.099442959
1540,6.659793377,0.2967062,7.75002718,-36.616745,26.77366829,-3.650450468
1541,4.800374985,0.677723587,7.607069492,-36.14769363,30.83555794,-3.621958971
1542,3.568282366,0.659280121,7.675877094,-45.7504158,31.90262604,0.255956918
1543,3.637907505,0.029794917,8.589648247,-35.05342865,14.78256798,6.586948872
1544,3.930385113,-0.958355069,8.975439072,-16.95139885,16.54997635,12.77556419
1545,3.517896652,-1.04518652,8.561998367,-6.711700439,40.88050461,15.23582458
1546,4.314554214,-0.635380089,8.951860428,-2.266730547,47.78185654,12.30830765
1547,4.535334587,-0.379302979,9.629838943,-10.34986591,40.15405655,11.9460144
1548,3.637600899,-0.451270849,9.710536003,-12.41621208,19.48552132,14.97284508
1549,3.287739515,-0.040618017,8.069986343,-31.58714867,12.79454136,19.47718811
1550,3.527836084,0.391519547,6.424314976,-53.14086533,24.41477013,12.32385159
1551,3.232633352,0.291297436,4.709753513,-44.25561523,47.37918472,5.520188808
1552,3.237015724,0.540871263,5.395651817,-21.07172203,64.22893524,10.24545956
1553,3.221329212,-1.360927939,6.210243225,-19.96409988,69.8866272,18.2046566
1554,2.631193876,-1.417050719,5.406643867,-20.33794975,73.03440857,15.02049255
1555,2.560018778,0.092030674,7.231200218,-16.9929142,48.52447891,13.94186783
1556,1.235536933,1.106365681,6.969369411,-14.55532646,8.678307533,14.84247589
1557,-0.123336583,0.06240081,6.795152187,-7.891652107,-23.16167641,10.24608517
1558,-0.928243458,-2.869766712,6.89306879,-14.48674774,-51.7830925,10.09876442
1559,-0.551195681,-3.255747318,7.093249798,-26.82971954,-80.00284576,5.524214745
1560,0.516508579,-1.432109594,6.946199417,-37.89100266,-100.8722687,0.821849167
1561,0.981681585,-0.255506366,7.266838074,-35.43924713,-114.6256943,-6.11702013
1562,1.713808775,-0.943118274,7.636860371,-21.9137001,-127.9726486,-6.150577545
1563,1.834703684,-1.528339028,7.835983753,-14.1845665,-139.5351563,-3.8059659
1564,1.823856354,-0.526983559,8.131065369,-8.673413277,-137.436264,-5.583584309
1565,2.361313105,0.082043521,8.052866936,-0.010220127,-135.3455811,-5.067658901
1566,2.262729406,0.105943441,7.512124538,11.61207104,-138.3507233,-4.196503639
1567,2.416236639,-0.503850877,7.82727623,14.26366711,-139.3112946,-5.383713722
1568,2.190206766,-1.13894999,7.229980469,16.32971573,-128.8221893,-6.487430096
1569,2.821477175,-2.217950106,7.358530045,28.78700066,-109.6919403,-6.873479843
1570,3.83665514,-2.836079836,8.004951477,36.57662964,-86.34279633,-11.68457413
1571,3.870270252,-1.97111094,7.849473476,46.64793396,-65.48210144,-13.82644176
1572,3.639698029,-1.118224263,7.45451498,53.64429855,-47.64902878,-9.576086998
1573,3.559432268,-1.131330609,8.392399788,45.48314285,-44.05009842,-9.721913338
1574,4.194295406,-1.680703282,9.134591103,45.95833969,-47.11026764,-7.333771229
1575,3.788099766,-1.564776301,9.870646477,15.78939438,-46.00149155,2.021685123
1576,3.749395609,-0.768631399,10.51764202,-16.74151039,-47.9635849,5.855200291
1577,3.944635391,-0.854434252,10.05627251,-44.32556152,-45.94997787,2.493771315
1578,5.002997398,-1.347425342,9.164175034,-47.1166687,-42.18338013,-1.828004122
1579,6.581506729,-1.49042356,8.259254456,-39.0475235,-37.86796951,-3.695093155
1580,7.341406345,-2.097059965,7.137081146,-23.64197922,-32.94989014,-3.994388103
1581,7.723817348,-2.260302544,6.819788456,-8.29451561,-26.03617096,-5.265203953
1582,8.241678238,-2.351852179,7.410511017,-1.377901673,-20.16893578,-9.60155201
1583,8.870335579,-2.529581547,7.045472622,3.421535015,-14.23692799,-15.10007858
1584,9.182156563,-2.643532038,7.128587246,10.11066341,-2.182180405,-19.91954422
1585,10.57609463,-2.516031027,7.335427284,21.44543076,3.436052322,-24.04362488
1586,10.52797318,-1.683267832,5.703508377,30.75701141,0.946144521,-23.26705551
1587,9.690040588,-1.384966016,5.892546177,35.8639679,23.55423355,-17.0021553
1588,9.07082653,-1.32314384,7.26112318,35.00693512,62.35965347,-11.7377367
1589,7.63939476,0.425974846,8.665840149,20.26598167,78.78125763,-7.475741386
1590,11.10512829,1.322108269,8.469343185,-9.303701401,102.5491104,-5.734809399
1591,12.54226303,-0.141124904,7.366020203,-1.047061443,85.35692596,-8.066288948
1592,9.310997009,-0.190379411,8.847421646,13.20631886,64.39035034,-16.75671387
1593,11.1382122,0.504083872,7.721030235,9.563463211,81.54685211,-18.28497887
1594,13.07159901,1.372300625,6.382998466,19.62631989,90.51369476,-6.061032772
1595,12.44410133,1.127071381,5.794946671,23.78595734,95.37155914,3.58425355
1596,11.20118046,0.225619778,4.499658585,15.15443134,97.2217865,4.042007923
1597,10.37015152,0.397251546,4.59721756,11.84998608,105.3893509,3.115415335
1598,8.745408058,0.830971599,5.65050602,4.635032177,107.1199417,10.69227409
1599,6.654438496,0.64522326,7.338140011,2.191059351,89.62978363,21.69521332
1600,4.528816223,0.085325047,8.475559235,-13.93340588,84.31140137,30.56320763
1601,2.319724798,-0.449360937,8.498521805,-31.30096817,143.2879028,33.37835693
1602,0.480634332,-0.970394075,8.348809242,13.1831007,206.3809509,25.55004692
1603,-0.839460015,-0.760783494,7.468986511,15.51887131,210.1213531,11.8069706
1604,1.164983988,-0.15227361,5.429791927,-6.727248192,187.772644,12.02841473
1605,0.266378939,-2.090608835,3.770368099,-42.96032333,182.7810974,16.23425293
1606,-0.37011978,-3.657652617,4.713414192,-53.17353058,177.2521667,11.31262207
1607,0.538113356,-3.847000837,6.632525444,-22.10255432,161.0234985,2.746558428
1608,-0.304179817,-2.427774668,5.873319626,-6.237410545,174.0329285,0.692032993
1609,0.153487191,-0.665935814,7.413922787,2.286808252,147.9104004,3.503005981
1610,-2.447407246,-0.374423057,5.771270275,7.624988556,127.6838684,5.88766861
1611,-3.462719917,-0.995543063,7.235715866,13.17358112,118.9459,9.815879822
1612,-3.214722395,-1.828520179,7.642199516,15.0409832,100.031189,8.408909798
1613,-2.735271931,-1.479983807,6.623756409,19.86809158,74.11480713,7.696604729
1614,-2.598943472,-1.032082081,6.615733147,41.3419838,50.49635696,5.2541852
1615,-3.057618141,-0.747356653,7.498113155,49.69041824,31.91322899,5.059921265
1616,-2.90826869,-0.75873214,7.978259563,55.19368744,8.486242294,6.769787788
1617,-2.61411643,-0.753738582,8.014023781,49.33518219,-5.532149792,9.32768631
1618,-2.458714247,-1.125289202,7.675819397,52.62830734,-24.6019001,7.79968071
1619,-2.802821636,-0.757667065,8.140963554,62.33889008,-35.74645233,1.141610861
1620,-2.31534791,-0.486040473,8.755195618,69.15331268,-53.81632614,-6.61576128
1621,-1.976797342,0.19091019,9.069084167,68.54170227,-73.78129578,-13.7141428
1622,-1.407996655,0.565077543,9.309453964,65.92532349,-77.28387451,-17.32232285
1623,-1.430069208,1.367983222,10.24550056,59.29986191,-89.61348724,-18.93089485
1624,-1.025285721,2.32375288,10.5793581,49.66403961,-108.9898529,-15.77643776
1625,-0.425952077,2.911159515,11.07168579,38.94681931,-123.7235641,-12.72311401
1626,-0.00207153,3.190346003,11.21933365,30.0155468,-132.5859985,-8.345970154
1627,0.310346603,3.220859289,11.19002533,21.54973221,-137.3431702,-2.290008307
1628,0.552849889,3.150567055,10.97001934,14.8607111,-136.3341217,3.180840731
1629,0.858337641,2.44472003,10.64484787,9.541567802,-137.2915039,8.248719215
1630,1.856223226,1.680591941,10.16865253,4.078160286,-138.8753967,11.78036308
1631,2.769953489,1.081090569,9.769963264,-3.505115509,-133.4167175,13.81637287
1632,3.192250967,0.891902566,9.71709156,-5.606225967,-121.7775879,12.9112463
1633,3.922462463,0.770709574,9.97399807,-1.22804904,-105.1162338,11.41118145
1634,4.575414658,1.05929482,10.85858536,-5.496099472,-91.79623413,7.817698002
1635,5.169163227,1.093855381,11.05797577,-10.39302349,-81.69698334,1.920338631
1636,4.980751038,-1.67644012,12.17821693,15.26341534,-73.24921417,-5.839272499
1637,4.970560074,-1.730891943,12.97737598,53.99166489,-79.74711609,-9.062122345
1638,5.448176384,0.901692927,13.32158852,55.98974228,-89.00811768,-3.735873222
1639,5.714274883,2.781597376,13.8042841,8.738667488,-73.87879181,7.493673801
1640,6.87993288,2.619766951,12.33080292,-38.60647202,-47.79537582,11.47973824
1641,8.116168022,0.626221657,10.87706375,-41.40803528,-25.53474426,5.098167419
1642,8.876992226,-0.709631145,10.38043213,-20.75281143,2.97086668,-0.272519529
1643,8.205970764,0.305396587,11.27806282,-8.141150475,28.82265663,2.533558607
1644,8.196171761,1.761444092,10.33214951,-13.43410969,14.03746414,3.809785604
1645,9.565502167,2.027866364,7.998470783,-23.41314125,0.703358173,-3.1312356
1646,10.80475807,0.600441635,6.565244675,-10.20952129,1.808827281,-7.021724224
1647,10.40803528,0.684574842,6.352272987,18.87670898,4.985730171,-4.512208462
1648,8.137068748,1.030964851,7.487963676,15.46339798,18.21656227,4.14482832
1649,5.880644798,1.254921317,8.491174698,6.048697472,29.31627846,10.29826927
1650,4.697245598,2.265066385,9.174496651,-20.55947876,42.28632355,8.666926384
1651,3.737815857,2.123515368,9.533086777,-53.97019577,31.13960838,4.905238152
1652,3.707040071,0.968073487,8.496764183,-56.16025543,22.94550896,7.463107109
1653,5.121511936,0.845494211,7.89598608,-53.92655563,29.15152168,10.61209393
1654,5.550527096,0.315101773,8.285201073,-54.17038727,35.63898087,13.06045437
1655,4.114818096,0.231449127,8.085422516,-65.45033264,46.44491959,21.86757469
1656,2.898747683,0.519821346,7.571529388,-73.99061584,46.39414215,23.39520073
1657,3.284877777,0.880799115,6.764824867,-81.48894501,58.45490265,19.98286247
1658,3.421413898,1.067638516,5.933932304,-85.83386993,83.39360809,25.09551811
1659,2.65274024,0.929064929,4.079254627,-80.82042694,113.6535187,27.48767853
1660,1.873610497,-0.141943291,4.276165009,-45.16802979,119.9142151,24.30907059
1661,1.416480064,-0.598428845,6.406558514,-15.27553368,105.8734665,22.44114685
1662,0.983863175,-0.711744845,7.20031929,5.220832825,76.33641815,17.89018631
1663,0.547147989,-0.741600692,6.539429188,34.12955475,46.63341904,13.55318451
1664,-0.056607649,-1.223389626,6.156545162,41.55400085,25.03769875,9.387166977
1665,0.370393038,-1.326087594,6.468376637,53.76021576,13.46888351,3.318513155
1666,0.143493712,-1.394959807,6.676686764,60.26666641,-6.332540512,-0.0827429
1667,-0.199567914,-1.199284077,7.12685585,60.07898712,-26.05486298,-3.477745056
1668,0.218296915,-0.781467497,7.299173355,46.40570068,-40.94543076,-3.753720045
1669,0.442445815,0.132296205,7.749217987,28.21991348,-59.06283951,-0.363692969
1670,0.789518774,0.516898811,7.890321255,10.2963028,-74.9201355,6.461184502
1671,1.191623926,0.932437301,7.772649288,-6.63602829,-82.57740784,10.5735836
1672,1.018555522,1.01187706,7.722513199,-9.227739334,-89.02809143,10.68503475
1673,1.686803341,-0.062857464,7.723184586,7.204657555,-95.48538971,8.113578796
1674,1.721283436,-1.30518949,8.452598572,30.19345665,-97.01449585,1.65149641
1675,1.727912664,-1.413823128,8.64591217,53.85029602,-96.29850006,-2.843925953
1676,1.957376838,-1.397539735,9.173293114,71.00419617,-91.52984619,-5.485654831
1677,2.63730216,-1.777690768,8.341008186,74.63543701,-84.70692444,-7.636118412
1678,2.679600239,-0.210923463,7.586401463,52.19787598,-74.05783081,-7.168396473
1679,3.010656834,2.141561508,8.004841805,36.69924164,-68.56970978,0.888337851
1680,2.449738503,3.064073086,8.230980873,20.13842964,-68.87282562,11.58215618
1681,2.678177834,2.310095072,8.005025864,7.087246418,-65.77567291,17.49521637
1682,3.354976892,1.097277164,8.478217125,0.054536745,-65.63859558,19.43109703
1683,3.026089907,0.37238428,9.001105309,-5.972778797,-66.96794128,18.13952446
1684,2.885855675,-0.197473124,9.472511292,-16.23209953,-59.06319427,16.41430473
1685,2.928425312,-0.457095206,9.600271225,-24.32736397,-48.50259781,12.63345528
1686,3.728276968,-0.272034168,9.676872253,-26.57164574,-42.49629211,6.813007355
1687,4.445944786,-0.137320966,9.903593063,-18.82399178,-40.13124466,2.031005144
1688,5.171026707,0.26705575,9.705536842,-7.717003822,-42.50175476,-1.950176716
1689,6.135663033,0.55852288,9.644115448,-2.869951248,-46.92308807,-3.302694082
1690,6.40284729,0.669259667,9.566500664,5.092051029,-51.81562805,-3.388823032
1691,7.033532143,0.674977362,9.230473518,9.497974396,-50.03581619,-4.335616112
1692,7.982886314,0.631992638,9.418420792,6.917050838,-46.23953629,-0.767323971
1693,9.047838211,0.391444892,7.187924385,-7.728396893,-33.67263794,4.907075405
1694,9.82522583,-1.513101578,4.658508301,-24.95342255,-4.330720425,5.590759277
1695,9.689624786,-3.142225504,7.474598408,-2.722236156,41.04751968,-1.272292733
1696,9.431352615,-2.778007984,10.31417656,21.38601112,62.86473465,-15.4811964
1697,9.558871269,-1.210518122,9.40024662,-7.957965374,75.84277344,-21.68904495
1698,8.296909332,0.81327498,9.047613144,-13.22387695,84.52481079,-12.02818012
1699,8.696875572,2.247225761,10.4509201,-3.198340416,92.05114746,2.194567919
1700,9.668446541,2.653020859,10.35926914,-30.02588081,84.9412384,10.65642834
1701,11.5257864,0.671013892,7.414923191,-37.69112396,74.36169434,14.23005009
1702,11.53624725,-1.862804294,5.427531242,-4.643019199,72.89461517,12.55058765
1703,9.246236801,-1.468400836,5.375490189,14.67394638,69.06358337,1.076386213
1704,7.982727051,0.776456475,6.118426323,16.53596878,64.88690186,-5.164178371
1705,6.895755291,1.463628531,6.351523399,9.490595818,71.71753693,-2.576467514
1706,5.271296978,1.656160951,6.277780533,3.205880165,99.51888275,0.417021275
1707,3.030195713,0.92318666,6.671359539,4.812101364,144.0471954,1.333770275
1708,1.352912664,0.305225104,6.84630537,5.929154396,176.7197876,-2.471590519
1709,-0.317912757,-0.128305987,6.724140167,1.777832389,173.7185364,-6.02482605
1710,-0.855427742,-0.654919565,6.130123615,-9.677173615,160.8128967,-7.786180973
1711,-0.535403609,-0.40835914,6.404813766,-13.40946388,150.8251495,-9.885932922
1712,0.075922742,-0.325288266,7.469276428,-24.96622658,146.3772125,-6.303378105
1713,1.178935647,-0.281832308,7.376039982,-20.55207825,142.9964294,-3.970695972
1714,0.896835864,-0.561770201,6.470069885,-11.56599617,133.8035583,3.397683382
1715,-0.032422796,-0.537248254,7.998849392,-2.06204915,123.7146835,7.181376457
1716,-1.12164104,0.363637984,8.588412285,-5.267817497,111.7062988,5.856891155
1717,-2.105936766,0.509172678,8.677977562,-19.54138374,113.6217651,6.907871246
1718,-2.026790142,0.213001445,8.819842339,-12.01294327,101.878067,6.998975754
1719,-2.996523857,-0.464727312,8.12515831,-4.43897438,98.4395752,5.705239296
1720,-1.853226542,-0.466364831,8.378651619,0.719026208,88.86672211,6.073830128
1721,-1.044275284,-0.820358932,8.652335167,0.648360968,57.52759171,6.056788921
1722,-2.026968718,-1.059627175,8.811564445,1.339996934,47.77548981,5.565550327
1723,-3.185080767,-0.492430687,8.435545921,8.323483467,36.90851212,1.722981215
1724,-2.699846983,-0.237816572,8.554947853,14.83936501,28.6270504,1.426869273
1725,-2.285099745,-0.342961788,8.795912743,13.0854044,18.42556,1.292335987
1726,-2.275677681,-0.381846994,9.010699272,15.11565495,5.793405056,1.175611019
1727,-2.711935997,0.045192286,7.675368309,16.15865707,10.4250803,4.356706142
1728,-1.817751646,0.153789937,9.092858315,24.45901299,2.780143261,7.336589813
1729,-1.422357202,-0.158750251,9.415174484,27.54748154,-13.67653656,6.780966759
1730,-2.88389039,0.074930459,9.187383652,33.26263046,-22.6729393,4.595437527
1731,-3.124468803,-0.138619289,9.579504013,38.62776947,-19.45563698,2.724856853
1732,-2.281681538,-0.190404326,9.515757561,45.02348328,-22.90394402,1.302872419
1733,-1.890030742,0.010408789,9.838253021,51.44812775,-31.58375549,-0.771310687
1734,-1.517521024,0.209678769,10.16438389,56.57613373,-38.79200363,-0.763130069
1735,-1.786916494,0.560094357,10.07598114,57.96849823,-48.0707016,-0.156279013
1736,-2.078180552,0.72468406,9.808246613,51.62787628,-45.89817429,-0.598911762
1737,-1.266154289,1.021716833,9.940995216,49.8752327,-46.66305923,-1.000947952
1738,-0.922679067,1.174667716,9.841803551,41.23566437,-53.42196274,1.125062108
1739,-0.837830901,1.589583397,10.05659103,35.30528259,-57.85377121,4.072530746
1740,-0.805526137,1.550854564,10.04437828,28.84839439,-59.60896683,5.242827892
1741,-0.662271976,1.486403823,10.10312462,22.66527176,-62.38623047,5.674487114
1742,-0.002932757,1.63565588,10.29167271,16.37531853,-69.27671814,5.704761028
1743,0.311186939,1.833801031,10.12441444,13.31940556,-72.25208282,9.624855995
1744,-0.137172639,1.592407107,10.05321407,7.701501846,-70.30469513,14.46678448
1745,0.236082733,1.375034332,10.13401508,6.872375965,-61.63889313,15.65904045
1746,0.750606418,1.022484779,10.45693874,13.98197556,-54.35812759,13.50235844
1747,0.907189608,0.877602577,10.85190105,21.6053009,-52.05526733,11.43758011
1748,0.553374887,1.00497961,10.63331223,34.14195251,-57.86184692,9.107081413
1749,1.078003645,0.830677867,10.48287296,51.5831871,-57.24040604,9.287239075
1750,1.636798024,0.887641132,10.30292034,62.53863907,-47.29929352,9.298766136
1751,2.063895941,1.246742368,10.52048111,63.4319191,-27.88442039,12.18286228
1752,2.054442167,1.735358238,10.18198204,38.25841141,-24.46832848,14.65961647
1753,1.931783795,2.532304049,9.647076607,23.39684677,-35.35264587,9.291918755
1754,2.168539047,2.885485172,9.333950043,13.84144211,-42.84295654,6.38842392
1755,1.765610576,2.941437483,9.364103317,5.129847527,-46.20747757,8.196043968
1756,2.020760775,2.780371189,9.613102913,6.735197544,-49.80026245,11.2326889
1757,2.478382349,3.062871218,9.51309967,8.896204948,-46.86149979,13.26140213
1758,2.393921852,2.895833492,9.259227753,10.18577576,-43.67150116,18.77949715
1759,2.717287779,2.725338936,8.99161911,15.3579073,-38.43261719,20.77015305
1760,2.951406956,2.321782827,9.218711853,27.61209106,-31.76054001,20.92395973
1761,3.132057667,2.174214602,9.035989761,41.52985764,-31.30273438,18.03006935
1762,2.861085415,2.690232515,8.889034271,50.27255249,-26.26354027,17.82666969
1763,2.761331558,3.074613094,8.802431107,49.50340271,-13.11587811,20.06004715
1764,2.953525782,2.835319996,9.371455193,52.54204559,-0.780901968,23.86654663
1765,2.607903957,1.608690381,9.777448654,58.28576279,3.199932575,29.37833405
1766,2.100989819,0.593178034,9.231553078,63.72414398,-2.615193844,32.7050972
1767,1.618165493,0.531950474,8.556166649,71.16718292,-13.91009235,33.22101593
1768,1.429282188,2.014480114,8.360613823,80.03939819,-18.28481293,33.85295486
1769,1.486258864,3.324007273,8.359651566,81.05632782,-18.5417366,35.99311829
1770,1.820749402,4.026931286,8.244968414,79.4930954,-17.00710869,40.489254
