PacketCounter,Acc_X,Acc_Y,Acc_Z,Gyr_X,Gyr_Y,Gyr_Z
1800,7.84604311,-2.264722824,7.296681881,9.683871269,66.29930115,18.93128967
1801,7.393527508,-1.326145053,7.301352978,10.24660301,60.98012161,15.34868813
1802,7.316267967,-0.049214225,7.301729202,5.115943432,60.05148315,12.93417072
1803,7.180810452,-0.151718676,7.636007309,-14.21312714,57.31892776,9.52477169
1804,7.344495773,-1.332437277,8.045517921,-33.83214188,54.50153732,6.158490658
1805,7.232386589,-2.165916204,7.846116066,-33.92726898,55.90664291,1.895592451
1806,7.031318665,-2.65344429,7.841964245,-22.03713417,52.15821838,0.608993649
1807,6.992516518,-2.594583035,7.934537411,-7.165340424,47.97670746,5.907765865
1808,7.02593565,-2.759618998,8.24145031,-0.61436379,46.15493393,8.979107857
1809,7.13828373,-2.94314909,8.938383102,5.486376286,44.13763046,10.83731842
1810,7.115839005,-2.84175849,9.109250069,13.65830421,38.16725922,10.03083324
1811,7.026059628,-2.318301678,8.57513237,20.47382736,35.99927139,9.29118824
1812,7.010006905,-2.441821098,8.269822121,25.15194893,37.27475357,4.240642071
1813,7.439450264,-1.568897247,7.850097179,30.21359444,35.56720352,3.749439955
1814,7.840407848,-1.333519697,7.584242821,30.63747597,33.83560181,2.04876852
1815,7.767463207,-1.950037599,7.870204449,26.75943756,34.7273941,1.238772869
1816,8.086386681,-1.898428559,7.798714161,26.2379303,36.37320328,2.049600124
1817,7.477258682,-1.855548859,6.697600365,30.41222382,34.25078964,-0.102976605
1818,7.472792149,-1.948524475,6.415087223,35.76345062,45.01652908,-2.487162113
1819,8.207168579,-1.482827902,8.00023365,10.68132973,67.06033325,-3.680156708
1820,9.61671257,-0.915017724,9.208293915,-14.34989929,77.99642944,-6.444862366
1821,11.25183964,-0.591525376,8.713323593,-23.79994011,79.93611145,-10.65736389
1822,11.0171814,-1.760660768,7.666849613,-42.20360947,76.18338776,-15.51536083
1823,10.57633877,-3.175127029,6.930699348,-47.97745132,65.80713654,-12.96429443
1824,10.83638668,-2.714606762,6.832594395,-40.01821518,56.40008926,-4.345261097
1825,10.89848328,-1.862479925,6.945772171,-37.84960938,51.41187668,-2.069068193
1826,11.01944733,-2.167258978,7.491374969,-52.24153137,36.01497269,0.970575035
1827,11.19874573,-1.981640458,6.869103909,-81.89672852,20.59843445,-0.994412363
1828,10.27178383,-0.115497082,3.31636548,-69.26048279,14.93285847,-0.413588345
1829,10.69457531,-0.182655156,3.53340435,-22.02072906,24.39483643,-2.076749563
1830,11.5215435,-1.294463396,4.091197968,-15.05345058,23.99569893,-11.52800655
1831,12.0318985,-0.968555868,4.669975281,-24.10515022,32.74743271,-12.65870953
1832,11.34024143,-1.290959835,5.810073376,-35.57338333,15.40917492,-5.72983408
1833,9.762394905,-3.752972841,5.939390182,-29.50521851,4.073616505,-2.2531178
1834,10.69459152,-4.835241795,6.026105881,-16.97300911,11.06533051,-14.38390541
1835,10.26074028,-1.488513708,5.589324474,11.31698513,-4.537152767,-24.35455322
1836,7.684428215,0.984182179,5.723116875,23.96962547,-17.56623268,-11.99405289
1837,4.376999855,-1.876042962,6.590094566,29.13954163,-39.09445572,11.63571644
1838,0.714965522,-3.054089785,6.19762516,30.58193588,-36.35268784,15.48378468
1839,0.45052582,-3.637834072,9.491447449,65.13520813,15.2608366,18.86136627
1840,0.979690552,-4.280742645,11.68367863,70.28278351,18.51990128,4.121723175
1841,2.031113625,-4.86196661,14.32949924,42.59825897,12.54772091,-10.19109917
1842,5.37599659,-3.910921097,15.42887783,32.17798615,0.424256742,1.44867897
1843,6.026144028,-5.442639351,13.90532303,33.41563797,-12.58447266,0.943736196
1844,3.146956682,-3.978171349,11.06623268,51.98810196,-3.586594582,-8.752457619
1845,3.656695604,-3.284257412,10.94966793,79.65422058,6.326741695,-3.223084688
1846,4.46163559,-1.814128995,11.1797924,74.1374054,2.513429165,-3.088413239
1847,5.181666374,-0.933708668,9.904719353,51.25473785,8.876620293,-2.69197154
1848,4.850355625,-0.1171958,10.76590538,43.61223602,29.358284,2.015796661
1849,3.644308567,-0.89671427,11.25009251,19.68057823,42.52396774,4.494422913
1850,2.50998354,-1.132396936,11.01506329,-0.753327906,51.94485092,-0.437853277
1851,2.289777994,-0.960056067,9.149651527,-1.016136885,34.62578201,-5.770335197
1852,2.846723557,-0.737230182,7.938450813,28.56331635,25.94781113,-7.536821842
1853,2.032315493,-1.436665654,8.220513344,35.01397705,19.04634094,1.532742977
1854,2.547952652,-1.368415833,8.941898346,28.34881973,23.74269867,2.818633556
1855,2.64266181,-0.908729672,9.702542305,23.97858238,23.11875916,4.239193439
1856,2.090981483,-0.584307432,9.610896111,27.41705894,21.89181137,6.473639488
1857,2.141258955,-0.314107239,9.785778046,30.37682915,23.20589066,3.328003168
1858,2.480080128,0.387396783,9.439144135,32.64281464,21.94577789,2.898240089
1859,2.683464289,0.182650447,9.705004692,32.66943359,22.99026108,4.287673473
1860,2.884570599,0.041413076,10.11554813,25.47864342,22.01300049,3.439940214
1861,2.388586283,0.163928956,9.9276371,22.78231812,24.10248947,4.197554111
1862,2.507645607,-0.030514967,10.14325809,18.13175583,25.00307655,5.879762173
1863,2.017510414,0.061527893,10.5451231,2.29121995,21.49707413,4.677200317
1864,2.278563261,0.227337778,9.206921577,-7.89771986,22.63963509,10.6414547
1865,2.305900097,-0.073927268,9.021145821,-4.78357029,24.1967926,15.69364548
1866,1.790499806,-0.765195668,9.555107117,-13.4748354,28.38073921,15.60966969
1867,1.860825181,-0.272810489,7.881470203,-18.88879967,29.18321991,17.48410797
1868,1.99311471,-0.154577628,8.598081589,-5.727780819,29.43913269,19.04824257
1869,1.789236903,-0.481313497,8.77753067,-12.72482395,28.19384384,18.18299675
1870,0.999980628,-0.54455477,9.189219475,-14.11303425,26.85473251,17.86101341
1871,0.440089464,-0.209678486,7.792257309,-10.29105759,18.62928963,18.84160423
1872,0.877121627,-0.682823181,8.201999664,-6.654614925,16.29681015,16.12779045
1873,0.958102107,-0.331368744,8.852066994,-14.21423244,12.91253471,14.53297806
1874,0.754383862,0.099762104,9.105321884,-13.24972534,4.977970123,13.71179771
1875,0.668212593,0.103086829,9.410504341,-21.10423851,-9.467847824,11.71863842
1876,1.045735121,-0.535403669,9.135574341,-23.12998772,-22.89159584,9.631917953
1877,1.125644326,-0.586407006,9.508318901,-32.82639313,-30.60373116,6.879558086
1878,1.222171664,-0.029211577,9.78421402,-44.45940399,-41.23009491,8.772171974
1879,1.202680469,-0.491064548,9.682830811,-55.83826065,-53.98604965,8.375864983
1880,1.551214695,-1.59605062,9.222244263,-52.95360565,-68.64896393,3.6953578
1881,1.974520802,-1.679377913,9.44247818,-61.31628418,-78.32105255,-1.751457334
1882,2.099954128,-1.79194653,9.700124741,-63.91491699,-88.19863892,-3.356428385
1883,2.923108816,-2.565606594,9.229955673,-53.36930847,-101.9221268,-6.523495197
1884,3.978892803,-3.79054594,9.171904564,-36.51696014,-110.2653198,-12.69904232
1885,4.590848446,-3.781391621,10.05426788,-23.86773491,-115.5669937,-13.12405586
1886,5.43959856,-3.060657501,11.13278008,-16.83693123,-119.8903275,-11.4553194
1887,5.726643085,-2.628074408,11.60604668,-12.96256065,-117.1422119,-5.405818462
1888,5.844335079,-2.713129044,11.13447094,-6.373418808,-109.2001114,-0.456892163
1889,5.948472023,-3.529777765,11.62227726,6.848743439,-103.4959488,-1.062391043
1890,6.27986145,-4.337305546,12.93219185,8.467305183,-100.1259537,-6.882493973
1891,6.417170525,-3.881561518,13.5731411,11.53438473,-101.0779114,-14.48090935
1892,6.697012424,-2.588147402,13.62613869,12.21413136,-106.6814651,-14.23954487
1893,8.008385658,-2.353632212,12.08950615,21.99144554,-103.91996,-14.05533123
1894,8.169971466,-2.618109226,10.01455975,25.63510323,-95.39002991,-5.739914417
1895,8.097078323,-2.142010689,9.46826458,6.229354382,-88.60401917,4.430870533
1896,9.621175766,-2.79746294,9.987099648,-16.80687332,-48.52640915,3.278423786
1897,11.06640434,-2.831615925,10.73638535,-40.88409042,3.161118746,-0.633252144
1898,11.00398254,-2.840406179,10.26309204,-20.65028191,25.35557747,7.688981533
1899,11.16497993,-3.238685846,9.475223541,-3.491148472,41.41192245,9.623066902
1900,11.6844902,-2.467055321,7.595504284,-14.9653616,66.26125336,6.160141468
1901,11.33287239,-1.383745432,4.970416069,-11.19170952,92.20384979,8.25470829
1902,10.01328945,-2.41651535,3.831033468,-1.397940159,112.5501709,13.02461338
1903,9.05632019,-2.722048521,3.417703152,-5.84580946,118.7387695,21.46962166
1904,9.160981178,-2.089489222,3.718906164,-1.752476454,121.8757248,19.37006187
1905,7.230460644,-1.807782173,3.748553753,4.723968029,146.0515747,23.87968826
1906,5.524825573,-1.97706902,4.465313435,7.849302769,180.8562469,30.04541779
1907,2.847714424,-3.140442371,5.30910635,-0.370017946,201.5320435,42.43730164
1908,1.086526394,-2.685343027,4.835162163,-13.71925831,221.0088196,51.53073883
1909,1.538576484,-0.908591628,4.585480213,-7.486907482,249.4869995,50.85274124
1910,0.224965036,1.951683044,2.09065032,20.87293816,252.0636597,53.897789
1911,-0.328152955,-1.196516275,3.915408134,-6.883323193,248.6507416,60.11869049
1912,-2.005168915,-2.460272789,5.540592194,-49.31100464,219.1399994,61.70278168
1913,-2.370362043,-2.881052017,7.404150009,-27.5867939,196.117981,59.3435173
1914,-2.795606852,-2.718234301,6.465601444,-15.18991947,168.325531,55.16546249
1915,-3.738332748,-1.770345807,6.271726608,10.32801533,138.9106293,48.06787491
1916,-3.27361393,-1.751326203,6.220965862,20.88817215,103.5674973,36.2424469
1917,-3.333048582,-1.283489466,7.402896881,21.31673813,73.76181793,21.38172722
1918,-3.877792835,-0.58735472,9.044813156,9.942903519,46.26961136,8.735678673
1919,-4.118795395,-1.539687514,9.872794151,-7.047762871,21.23963547,1.310591221
1920,-2.674172878,-2.977838516,10.46393394,-9.938430786,-2.458058596,-8.042116165
1921,-1.868245244,-3.144034386,11.06580925,-0.301020831,-25.83512688,-21.3286171
1922,-2.604159832,-1.878753066,10.37600517,6.197510719,-59.80019379,-26.94585228
1923,-3.046800852,-1.974674344,10.82560349,6.365572453,-91.66350555,-34.02582169
1924,-2.293787956,-2.404589653,11.42973137,9.024624825,-118.4381485,-32.48522568
1925,-1.490184069,-2.503775835,11.47245312,9.084257126,-152.969223,-37.58419418
1926,-0.901142597,-1.29669857,12.9234724,9.772733688,-187.2664948,-48.19670868
1927,-1.029919505,-0.928292394,14.57297134,9.46675396,-221.3641968,-53.85471344
1928,0.090321124,-3.551185131,15.0765686,9.705457687,-270.8110657,-48.52778244
1929,2.989791393,-6.020700932,13.3194294,31.47877502,-303.5186462,-56.23199463
1930,6.170782566,-3.4421947,10.38643932,27.8898716,-291.6364746,-63.83731079
1931,7.110681057,-0.820051908,7.48943615,21.12158966,-279.3028259,-53.54564285
1932,7.796726227,-2.447143078,7.726164341,1.78520596,-268.7695923,-46.36161423
1933,8.924962997,-5.138821602,10.02680779,4.643622398,-248.7625122,-59.06875992
1934,10.34765911,-4.506699085,12.41787529,5.697601795,-229.9885864,-66.30498505
1935,10.85961437,-3.1702528,12.44937325,4.415969372,-229.6403656,-56.65077972
1936,12.0132494,-2.541543722,10.51787663,21.3256855,-214.7457428,-47.83039856
1937,13.44245338,-3.469630718,8.131710052,48.46269226,-180.1155853,-30.53209305
1938,13.78284645,-3.977247477,9.438489914,37.48538589,-122.3048553,-19.07221031
1939,12.20219898,-2.104201078,8.98948288,30.36134529,-77.92816925,-11.24784279
1940,11.96110058,-1.5093925,6.57976532,20.59949875,-53.32355118,0.6208781
1941,10.9279213,-0.313200533,3.246680021,23.97652054,-24.73051643,9.650389671
1942,10.90762234,-1.331621647,1.957887411,37.74895477,3.938711882,14.85148811
1943,9.146800995,-1.070097208,1.818223357,40.35639954,33.76407242,1.579339266
1944,10.00712585,-0.306952417,0.777334273,-3.430218935,32.6472435,-1.79653275
1945,4.422145367,0.688322246,2.34429884,-30.9982338,33.52683258,5.303027153
1946,3.319178104,-0.789772034,4.185864449,-111.0538025,83.60787201,7.500775337
1947,0.075773425,-0.227242798,-1.540796161,-78.02735138,101.3285217,7.315493107
1948,0.493097544,-1.809379935,1.001929164,-4.21340704,88.59574127,10.51119041
1949,2.114302158,-0.991043031,5.627569199,-3.965680122,94.65579987,17.85106659
1950,3.669798374,0.164218977,6.10038805,-12.56200314,100.7866287,19.10298347
1951,2.18831563,-0.470299572,6.278124809,-30.9610672,84.47776794,18.82419968
1952,-0.565491855,-1.689724684,5.168170452,-10.36758995,58.64822006,21.24927521
1953,-1.996474028,-1.705989361,4.158517838,7.557705879,21.2053051,15.66961575
1954,-0.000836105,-1.034389496,5.261959553,10.59666824,6.966141701,8.82631588
1955,3.117044687,-2.006171227,7.585270405,-16.76926422,2.988281488,5.69691658
1956,5.145496368,-1.445668697,8.060584068,-40.20725632,9.09646225,0.498112351
1957,3.709565163,-2.631746531,8.203902245,-13.78388214,-1.262617588,6.026538372
1958,2.546500444,-2.850568771,8.228867531,7.457125664,-14.04270172,3.506209135
1959,4.505311012,-2.705380917,8.082663536,17.15186691,-16.69815636,-2.589257002
1960,5.074370384,-3.005451202,8.144075394,14.85055256,-20.74341583,-5.671920776
1961,5.276888847,-3.273247957,7.637034416,20.66689682,-17.0796051,-8.78153038
1962,5.657884598,-2.631013393,7.283168793,33.00806427,-22.65795517,-6.706185818
1963,6.039980888,-2.674470186,7.676947594,37.45957565,-20.49519157,-11.29751778
1964,6.671023846,-2.551759243,7.807646751,36.39512634,-23.29262161,-11.51911068
1965,6.787126064,-1.418603539,7.596295357,27.34641647,-26.81499481,-3.529614687
1966,6.299210072,0.166845068,8.267663002,6.246347427,-28.05090523,6.689167023
1967,7.32543087,1.131940126,9.61699295,-28.16518402,-27.26363754,6.064896107
1968,7.357918262,-1.215485573,11.63752079,-54.70499039,-30.20213318,5.866983891
1969,6.922674179,-1.670400977,11.4498148,-67.30973816,-40.33135223,-6.664595604
1970,8.128967285,-2.880304098,11.14006424,-48.62470245,-32.92715836,-14.21549702
1971,9.951003075,-4.418107033,10.27441406,-13.48818588,-24.25668335,-7.062312603
1972,11.36144447,-4.567120552,9.075699806,2.79298234,4.012787342,8.381712914
1973,11.80752468,-2.903073311,7.092259884,9.631896019,52.4729538,25.33732033
1974,11.23205471,-2.696632624,8.961751938,-13.73853302,134.1120453,36.79872894
1975,11.00247574,-3.640568256,8.841974258,-3.68269515,177.7938232,42.9821434
1976,11.08681488,-3.937719345,9.324480057,13.11379623,192.8808594,44.16806412
1977,10.147048,-2.794998169,5.761348724,24.51051712,206.8278198,42.91044998
1978,8.950057983,-1.458789229,2.045193911,45.45621109,202.545929,37.79494095
1979,6.236595154,-1.753393531,0.311075926,39.59134293,228.1581726,41.06790924
1980,6.542016983,-1.475323796,0.718949497,27.18029022,228.6510925,53.61562729
1981,5.188226223,-0.887746692,1.917487025,20.30668831,236.2109985,57.27083969
1982,0.989164948,0.632011652,3.711063623,36.85028839,244.8125,61.03597641
1983,-2.257445812,2.218027353,4.165622234,33.10327911,258.9660034,61.81961823
1984,-2.512881041,0.369788319,5.051377296,-26.40579033,246.4466705,55.37256622
1985,-3.220380068,-2.070608139,6.48558712,-73.92775726,246.5298615,56.41738892
1986,-5.591792107,-2.518604279,8.692466736,-36.63044357,192.8235321,55.36071777
1987,-5.362850189,-4.661690235,12.64089108,-28.11214447,146.3029938,56.00027084
1988,-8.437407494,-5.580145359,12.75188637,-46.59867096,116.5918503,33.71976852
1989,-7.949213028,-2.164837599,6.706084728,66.06692505,101.4043045,13.99319267
1990,2.41143918,-3.21605444,9.993387222,88.85821533,51.44573975,11.88553238
1991,-5.14740181,-0.641391814,9.907132149,31.41920471,34.96058655,6.790582657
1992,-4.812309265,-0.789359212,12.36616898,9.882246971,12.40405083,-5.699273586
1993,-4.284020901,-0.443185002,10.73743343,-6.522986412,-13.71491337,-11.18185234
1994,-3.194321156,-0.892959952,9.285605431,9.000092506,-38.68894577,-17.0192318
1995,-2.086253166,-1.274807096,9.776799202,1.419484496,-72.32469177,-22.22915268
1996,-2.655785084,-1.644044995,10.0602541,-0.078947507,-96.28761292,-26.42398071
1997,-2.126740932,-3.105681658,10.90693378,-4.890860081,-122.9392548,-28.69076729
1998,-1.780076742,-3.071536303,11.13130665,13.67400646,-140.9423828,-30.85261726
1999,-0.625295877,-2.312371254,12.32617283,12.06897736,-160.9412079,-36.68188477
2000,0.49028635,-2.329071045,13.48624039,17.64943504,-187.9387817,-45.12747192
2001,2.045066833,-2.261323929,13.12392712,36.14440918,-221.3635406,-44.67776871
2002,3.718907356,-3.029337406,13.86574745,42.55167389,-227.4577789,-38.8676796
2003,5.028811455,-5.187861443,14.25356293,49.27029419,-231.2686005,-47.3319931
2004,5.501000404,-5.472943783,13.20089245,40.9928894,-216.0713501,-63.70061874
2005,6.555200577,-1.631817698,11.59360218,41.2250061,-205.6378937,-61.67078781
2006,6.960457802,0.194264501,13.13045597,40.98420334,-207.6771851,-45.26721954
2007,7.734618664,-0.926074982,13.31257915,24.79904175,-205.1774902,-30.64596939
2008,9.030703545,-2.751419544,12.9977951,25.32790375,-189.4897461,-31.27276611
2009,10.23609734,-3.226760864,11.70008278,52.59394073,-170.7974243,-27.08128548
2010,10.5506134,-1.515083909,9.306869507,78.7191925,-154.3167114,-15.33756733
2011,12.65630245,0.815720022,5.21035099,71.13008881,-138.5535278,-9.266689301
2012,11.48790359,2.728724718,4.861624241,29.81638908,-85.31416321,-2.3005476
2013,11.0981617,1.54108417,4.685232639,-1.695871592,-23.52258492,-2.589897156
2014,11.38490295,0.132821336,3.906891346,-1.765509725,10.79193592,5.876407623
2015,5.731955528,-1.090541124,4.651549339,18.88577461,20.96543121,5.770282745
2016,3.574076414,-2.852444649,7.421762466,3.576935768,1.917181373,-4.451871872
2017,3.453336477,-1.90251565,10.35206413,-49.19956589,1.306700826,-6.133014202
2018,3.195982695,-0.273452431,11.62239647,-162.9640198,61.74706268,4.433373928
2019,-1.475324869,2.759503841,-4.681878567,-79.71414948,-10.13208961,5.480211735
2020,1.558173299,-2.124089003,2.74586153,7.831440449,29.73289299,13.47497845
2021,2.446238518,-1.13074398,5.809688568,-13.76896763,45.48474503,12.24053383
2022,3.663735628,0.259084284,6.358311653,-11.62778568,38.93121338,1.980583906
2023,1.986732841,0.074612334,6.697158337,-13.64013577,30.58112717,0.974778354
2024,0.666150451,-0.272967428,7.642162323,-14.15500641,12.09779739,6.737589836
2025,-0.266112685,0.007901283,6.237149239,-3.376064062,-12.69219303,9.787063599
2026,0.331671387,-0.24971202,6.516476154,-15.26682186,-18.82312775,11.34456539
2027,2.637481213,-2.195642233,7.630385876,-25.17794418,-27.15310287,-3.865282297
2028,4.659378529,-2.133309603,8.331777573,-13.54388618,-27.28018379,0.096515365
2029,4.66865778,-0.265430421,8.570637703,-9.565873146,-30.24793625,8.477604866
2030,3.613533974,0.088227086,8.813404083,-19.5143795,-38.65042114,6.79820013
2031,4.254894257,-0.713145316,8.595797539,-13.48852062,-47.91819763,4.973997593
2032,5.308178902,-0.86731261,8.520349503,-20.55372047,-51.05515289,7.593485832
2033,6.439476013,-2.325244427,8.079423904,-28.68318939,-46.31305313,3.311802149
2034,6.511099815,-2.879115582,8.190803528,-25.52396965,-35.78630066,2.383668184
2035,6.883636951,-2.669674873,8.672595978,-21.25808907,-32.21399307,2.488600492
2036,7.272184849,-2.206232309,8.006242752,-17.58138657,-21.98237801,-2.875725031
2037,6.977614403,-2.592614651,8.659917831,-16.05487823,-17.02013397,-5.834878445
2038,7.555386066,-3.339463472,9.358422279,-8.047964096,-12.11288261,-6.748132229
2039,8.235600471,-2.906991482,9.955800056,-11.85961342,-6.448784351,-9.173350334
2040,8.363435745,-2.247855902,10.46314526,-10.35744476,-4.160340309,-16.3529129
2041,8.801538467,-2.624056101,11.09321499,9.19554615,-1.310271263,-21.15258408
2042,8.232778549,-2.74892664,10.13623524,33.61980057,2.288077116,-18.16641235
2043,8.666056633,-0.44895792,9.911026955,50.7737236,4.034826279,-11.74585342
2044,10.21477985,-1.050267935,9.443723679,44.26280212,38.68086624,-10.56339836
2045,10.7980032,-2.841641426,10.68491554,30.95210838,97.86750793,-7.28356266
2046,11.28026104,-3.462650299,12.28541565,1.883145332,165.8921356,0.137931377
2047,11.69390869,-2.043284178,10.77460575,-10.00468445,190.059967,14.86486149
2048,10.68014431,-0.569182098,6.304238796,2.057122231,211.4203339,16.47463226
2049,10.63644695,0.203136295,4.330446243,-9.662427902,222.0985413,19.59994698
2050,8.837032318,-1.370141745,4.072474003,-16.40349388,250.8073883,30.35552025
2051,7.270703793,-0.62594378,1.406093001,-11.79457092,252.9439545,38.63173676
2052,6.078318596,0.047478247,0.829134047,11.87515163,264.9367981,42.37182617
2053,3.137079239,0.693554223,1.047929525,18.46821022,266.4168091,49.46198654
2054,-1.955207825,1.061632276,1.686927438,3.747496843,256.5122986,50.46248245
2055,-5.053068161,-0.295968175,3.645084858,-27.43084717,212.7601929,50.28567505
2056,-5.449011326,-0.536571801,4.414552689,-63.61344528,181.8740997,52.53841019
2057,-4.205318451,-1.810693502,4.612688065,-105.0036697,155.2584381,61.38409805
2058,-5.002410412,-3.474941969,7.116612911,-95.89633179,143.7596283,58.96298981
2059,-4.431674957,-4.764439583,9.548239708,-83.11193085,126.9618835,58.05770111
2060,-4.527958393,-4.056491852,9.057703972,-28.95089531,96.68948364,46.94312286
2061,-5.077119827,-3.752356052,9.976620674,15.57183743,76.3053894,24.66218948
2062,-4.202240944,-1.577154517,8.707345963,30.19522476,42.70615387,7.528274536
2063,-5.732503414,0.506459057,8.568678856,29.54644585,14.60635662,-11.18724442
2064,-4.415543079,-2.014993191,13.44064522,-49.25431442,-0.598044574,-31.78834343
2065,-0.962350249,-2.260335684,13.68062592,-56.90744019,4.72518158,-20.12399864
2066,-1.279249549,-1.562355757,13.15535259,-38.25998306,-14.97651005,-9.859278679
2067,-3.203867197,-3.377250195,12.41196823,-12.78394985,-54.20413589,-22.11260986
2068,-3.507047415,-4.954480648,11.24218464,5.198785305,-89.37002563,-29.66407967
2069,-2.94937253,-3.749820471,11.06245232,23.57814407,-110.1547546,-35.24936676
2070,-1.633509755,-0.925323725,11.40059662,16.73022842,-125.7816925,-35.78730392
2071,-1.533814311,-0.660307229,11.596735,-6.590042591,-132.9767761,-25.00507355
2072,-1.651363373,-2.206168413,11.05858898,-11.27486229,-144.5032196,-19.73164749
2073,-0.416985691,-3.420249224,11.93779945,4.75767231,-158.5962219,-25.84155464
2074,-0.556187749,-3.894282818,14.80769348,21.91036034,-193.4706573,-25.5667572
2075,-0.331606925,-3.746109247,13.02642727,24.6505909,-225.8520813,-23.39898109
2076,1.485889196,-3.236018181,13.13119316,23.72343254,-246.6549377,-21.12127686
2077,3.790886879,-1.187443018,9.446588516,33.12349319,-246.5483856,-21.69305229
2078,5.228075981,-2.361152649,8.218689919,24.77217674,-257.2828674,-16.89723206
2079,7.088070393,-4.555988312,9.275672913,22.84381485,-238.8197479,-23.49645042
2080,7.845931053,-4.23718977,10.68342495,16.63792419,-226.2617798,-49.40005875
2081,8.900954247,-1.142619133,12.13324833,26.82240295,-224.9578094,-64.52947235
2082,9.866325378,-1.176128507,12.73290348,33.74089432,-231.0833893,-53.80406952
2083,9.901844025,-3.894958019,12.47227764,46.17905807,-231.6632233,-50.28769302
2084,10.56309319,-4.670249939,9.855946541,72.24743652,-202.2060242,-56.14811325
2085,11.83802891,-2.829200268,8.777373314,78.3433075,-170.1804047,-51.35800552
2086,12.4811306,-0.36809665,8.374518394,75.06697083,-120.2237625,-38.269207
2087,12.50760174,0.213510007,10.11549568,51.68160248,-95.31166077,-24.86749268
2088,11.489007,-0.205034733,7.912796974,9.019314766,-52.55747604,-5.028040886
2089,10.53346634,-1.804910898,5.360377789,-18.42393684,-13.54562092,-0.60530597
2090,10.50689983,-1.687991738,4.122313499,-27.09804916,11.6895237,-3.329814672
2091,9.385416985,-1.66290307,0.670390904,-10.85294342,33.16084671,-10.4387989
2092,10.83737755,-0.740433514,0.259085268,-9.330366135,44.71570969,7.329622269
2093,4.973171234,0.294568241,1.769499898,-35.14010239,85.82717896,-0.729189992
2094,5.781560421,0.252781808,4.387620926,-62.58771515,82.79831696,8.35231781
2095,7.30555582,-1.274115682,9.916379929,-156.9424591,111.6616211,30.49283409
2096,-0.437348127,1.936390519,-3.900604725,-183.8768005,112.3970871,25.10268211
2097,1.837922812,0.294530094,-5.176264286,-19.58127213,115.8888016,33.0896492
2098,1.74699986,-1.712450743,1.23950088,-36.19481659,130.1711273,43.75107956
2099,1.844608784,-2.068332195,4.702860355,-49.3297081,129.3783722,40.43358612
2100,3.12304163,-1.234778285,7.231820107,-44.9261055,128.4701385,39.51583099
2101,0.230710581,-0.351359844,6.606481075,-24.88437843,103.5964203,42.68119812
2102,-2.385062933,-0.593451023,6.532287598,5.649631023,75.8578186,36.49484634
2103,-2.958421469,-1.262350917,6.00714016,24.81341362,44.33017731,25.83042717
2104,-0.891017497,-2.174801111,6.286028862,34.79741287,25.87821198,15.74347019
2105,1.368637204,-4.118509769,7.804435253,23.15625763,10.88695335,5.907064438
2106,1.665849328,-3.265424013,7.876080036,37.10804749,-0.797237635,5.851038456
2107,0.812567592,-0.974222183,7.988599777,45.64066315,-21.71467781,0.229575068
2108,0.894241154,-0.261800438,8.181212425,39.71925354,-45.41189194,-7.294810295
2109,2.278620005,-0.544672728,8.679926872,24.9767189,-62.48262024,-12.34399986
2110,4.092211723,-1.541250944,9.831737518,6.098990917,-66.93898773,-14.71809483
2111,6.193748951,-3.394015074,9.944119453,1.04992497,-64.66221619,-8.111290932
2112,6.865860939,-4.415344715,9.825232506,15.66619492,-58.81473923,-5.627183914
2113,6.972074032,-3.299119234,9.737585068,28.1270771,-55.70862579,-7.64150238
2114,6.775108337,-2.544908524,10.19096947,26.02389336,-47.78063965,-11.91892242
2115,7.606812477,-1.842710376,10.71015263,7.695702076,-35.69523621,-12.28371048
2116,8.59625721,-1.914020777,11.55919075,-11.14437199,-29.88683128,-9.696005821
2117,9.250303268,-3.154183626,11.95475769,-3.083187342,-25.74479675,-7.534633636
2118,8.28380394,-4.238905907,10.26387024,38.86725998,-25.29831696,-13.31772614
2119,6.853952408,-4.509193897,10.399827,38.6595192,13.80374146,-21.05311775
2120,6.990363121,-3.252193928,10.08011818,38.59839249,12.57115269,-17.54008293
2121,8.29155159,-2.319520473,10.36449051,41.48693466,30.87516403,-15.00832272
2122,9.719786644,-2.421338797,10.27558041,7.621897697,65.18196106,-4.785126209
2123,9.355216026,-2.082890511,9.647601128,-13.49356842,108.5450516,1.426629782
2124,9.408463478,-1.438060641,9.824509621,6.393652916,127.6674271,11.53151226
2125,9.812646866,-0.976728857,9.065974236,-9.905819893,139.4530182,21.30918503
2126,9.973860741,-0.624065459,6.128618717,-23.10733986,164.4292755,25.62100792
2127,8.833368301,-1.680738091,5.72590971,-8.134662628,162.5618744,26.92710114
2128,7.01243782,-1.101230502,4.237977982,10.41696739,178.6248932,31.01671219
2129,6.131780148,-0.292402506,4.136473656,10.66204357,186.3853607,33.34128952
2130,4.356385708,0.207652509,3.668688297,-0.55368048,192.4991913,36.31295395
2131,1.724906921,0.282204658,4.415234566,-9.862221718,197.1045227,40.38549423
2132,-0.806695938,-1.039090037,5.398334026,-31.54730225,202.5068817,47.54140854
2133,-1.091969013,-2.847102642,6.838748455,-32.08570099,196.2797394,56.89330292
2134,-4.058925629,-3.683841705,8.344931602,-24.74167442,188.7022552,53.43294525
2135,-3.904993773,-3.140547037,10.32098293,-26.05524445,180.6180725,43.88841629
2136,-4.32753849,-1.211399674,12.21578598,-16.75354195,188.6746063,33.42939758
2137,-6.263780594,-1.514295578,13.08466244,-58.58728027,178.6640015,15.90125751
2138,-2.570715666,-1.519753218,12.60526752,-70.63834381,120.5877686,9.042345047
2139,-1.808558822,-1.000340581,9.671277046,-43.67615128,40.48925781,28.91274071
2140,-3.685605764,-1.175236106,8.637753487,20.37751389,4.89798975,28.97641945
2141,-4.732291222,-2.037747383,8.717209816,6.115935802,-7.474326611,15.55427933
2142,-3.571027756,-3.718556643,8.421981812,-26.39670563,-19.34532547,-0.92073524
2143,-2.060479164,-4.072259903,9.279876709,-31.29471397,-24.93690109,-11.94531631
2144,-2.297236681,-3.66150856,10.9650526,-17.13292885,-33.66281128,-21.9557457
2145,-3.21716404,-1.544556499,10.93217754,8.197616577,-73.29729462,-29.13796616
2146,-2.83430481,-0.825688004,11.11097336,15.3813982,-109.8743057,-37.45501709
2147,-2.201172352,-2.352422476,10.35448742,11.81067467,-143.4380493,-43.3344841
2148,-0.720054507,-3.995452404,10.07051468,15.27725315,-159.6145172,-47.30363083
2149,1.204842567,-3.026819229,12.05129433,23.27968788,-180.4053802,-54.68695831
2150,2.68927598,0.201677755,14.09484673,44.8993721,-209.1924286,-66.0754776
2151,3.046453953,-0.910685837,14.39075661,57.66473389,-245.2662964,-52.49011993
2152,5.340683937,-6.154152393,11.24281216,-5.40950346,-245.4997864,-46.24917603
2153,7.887613773,-5.090724468,8.783285141,24.28801727,-233.363327,-53.66047668
2154,7.687118053,-2.012138844,11.0026741,25.63485527,-213.2375946,-54.96374893
2155,7.231265068,-1.901885748,12.88650131,13.69125175,-213.8392639,-43.39461899
2156,8.261871338,-2.442483664,13.1900053,11.02885056,-221.4234314,-25.80286026
2157,10.94846535,-4.689074993,13.04643917,6.779706001,-188.7526245,-21.38541031
2158,11.75916481,-4.175516129,11.50512791,5.3842206,-151.2232971,-12.399333
2159,10.83974361,-3.176864147,8.97117424,-11.81452942,-109.0515594,-8.776258469
2160,10.85583687,-1.598501205,7.862826347,-20.75481415,-61.75517654,-11.18162632
2161,10.97712135,-0.873369753,5.649868965,-17.48143005,-40.60555649,-7.982074261
2162,10.46289825,-1.698224425,3.166472673,-11.47830868,-16.19618797,-3.349415779
2163,9.292070389,-1.739311099,2.694315434,9.463049889,12.6526413,-6.600027561
2164,7.024169922,-1.671804428,4.716012001,24.60476303,38.28784561,3.155892134
2165,3.049580812,-0.920188665,7.799381256,-33.33613968,42.45090485,1.969937801
2166,2.394908428,0.872039437,5.656689644,-70.70285797,51.86408997,11.97641373
2167,-0.653758705,1.39767766,-0.069063634,-63.27788544,47.32941055,20.35490036
2168,-0.36423558,0.203885511,3.458244562,-55.55696487,41.03842545,20.3263607
2169,1.162670732,-1.88716352,4.14598608,-76.65871429,26.88704491,22.96395493
2170,1.168875575,-4.91281271,6.011157513,-72.00280762,11.03879261,12.46398735
2171,3.913243055,-4.485382557,6.268604279,-35.38354111,11.12021542,12.48824883
2172,2.306643248,-3.176428318,7.817960262,-21.28501511,13.24079418,11.2152853
2173,-0.238410115,-1.06048727,7.872361183,-18.10139847,-0.360140562,-1.983423948
2174,0.824838936,-1.067708373,6.678303242,-11.59117126,-14.94071484,-6.357297897
2175,2.351657152,-2.860373497,8.184727669,-9.819727898,-24.66570282,0.671086371
2176,4.20202446,-3.990658045,8.037874222,-11.46121693,-32.08005905,5.147629261
2177,2.800757647,-4.24889946,8.157295227,-6.983861446,-18.6144619,-0.221409276
2178,2.293349266,-3.605919361,8.892932892,0.09360829,-22.27468681,-18.00426865
2179,4.897380352,-3.705672026,9.007858276,9.014404297,-36.5009346,-21.91147423
2180,3.392519712,-3.189606667,8.61280632,37.2268486,-50.43107986,-21.06171417
2181,3.474354029,-3.610866308,8.685775757,55.57633591,-65.62395477,-17.80656052
2182,5.157646179,-3.667906761,8.261546135,65.57170868,-71.42867279,-22.18974495
2183,7.005932331,-2.47171855,8.011896133,71.02194214,-61.07756042,-25.5550251
2184,7.483949184,-0.770119667,8.419348717,56.91131973,-48.39670944,-11.59080029
2185,7.714438915,-0.17380558,8.214796066,32.90289307,-43.44430923,-5.768809319
2186,7.426677227,-1.393161416,8.485413551,7.022183895,-36.20200348,1.488252282
2187,8.638544083,-2.323450565,9.325013161,-18.14777184,-25.17881393,2.100011349
2188,9.767241478,-2.920065641,9.856751442,35.6517067,-15.46848965,-5.215017319
2189,8.514177322,-3.177821636,9.729491234,72.17781067,-15.46744156,3.635946274
2190,10.85366821,-0.893043101,9.571904182,64.12030029,-1.368712664,16.34232521
2191,9.816221237,-1.729580998,10.45810127,41.56235886,44.98958969,17.64178848
2192,10.3510294,-3.378189087,9.974446297,14.33232784,98.88925171,16.47498322
2193,10.40192509,-2.002551317,8.732592583,3.333267689,150.2055206,14.28841877
2194,9.649325371,-1.879171014,7.971232414,2.552812815,176.578476,17.49330902
2195,7.851035118,-2.123941183,4.858201981,-7.898220062,193.3843384,21.80815315
2196,6.772643089,-2.520357132,3.550635815,-10.68547726,211.1940308,29.19026566
2197,6.457156181,-2.889165163,3.636810303,5.438292503,205.0040894,31.47660255
2198,5.578803062,-1.544836521,3.104777098,13.40731525,220.891922,28.39652634
2199,3.909353256,-1.323358774,3.448766232,14.89358997,223.1217957,33.17502594
2200,1.460043192,-1.859141827,4.294501781,18.94928741,226.7385406,36.70004272
2201,-0.392454147,-2.217146397,5.551297665,20.51343918,217.4903564,30.89625168
2202,-2.224126816,-0.563592911,6.24314642,48.94374847,200.1316071,31.15293312
2203,-3.150586605,-0.636256278,9.499547005,32.92389679,192.6880341,31.82432175
2204,-3.166674614,-0.652859092,10.71345234,-17.17338371,195.7564697,38.15353775
2205,-2.215979099,-1.978492975,11.5358696,-53.12415314,209.6738129,38.18162918
2206,-3.032992363,-2.734793901,14.11218071,-71.45085144,195.2797241,30.46923256
2207,-4.230615139,-1.163269758,11.30121994,-84.17923737,144.7739258,30.7063961
2208,-5.606422901,-0.786515176,8.455225945,-77.52336884,116.8280792,22.16931343
2209,-3.920424938,-1.781166911,9.631985664,-57.32915115,82.53623199,14.31901836
2210,-3.491899967,-2.286138058,10.6102705,-62.09971237,43.54119873,13.07572842
2211,-3.524902821,-3.105323553,9.577610016,-45.00719452,20.85673332,8.973193169
2212,-4.075779438,-2.790592432,9.530068398,-25.38352013,-6.084778786,3.928088427
2213,-3.930128098,-3.543933392,8.630526543,-5.186365128,-31.14465523,1.375176072
2214,-3.26382637,-3.932109594,9.213236809,-1.159953952,-54.10866928,-11.8904705
2215,-3.002044201,-3.09569931,9.61662674,0.524573207,-78.5181427,-22.38918114
2216,-2.772696257,-3.229762316,9.545858383,-1.180576205,-105.134552,-25.01645279
2217,-2.20177412,-3.650079966,10.9832716,0.288531393,-125.8805542,-31.95623207
2218,-1.7736094,-3.481455088,12.00014305,-2.425487041,-148.6932983,-38.07206726
2219,-2.095510244,-3.763970375,12.7363348,2.47760725,-172.4117432,-51.89212418
2220,-1.242598414,-3.73829484,12.2507534,17.50671005,-196.25177,-50.61465454
2221,0.692196846,-3.051387072,11.18250656,23.03790855,-227.0921936,-49.55942154
2222,2.556583643,-2.888686895,10.46644306,45.77384186,-248.7119141,-45.12861633
2223,4.96598053,-3.540523052,10.56110573,65.24591064,-262.144989,-41.68106079
2224,6.388678074,-3.351923227,10.74879169,62.90413666,-262.4828796,-41.06887817
2225,5.937262535,-2.863550663,10.29609776,43.86278534,-257.0801697,-36.09989166
2226,7.379192829,-2.436312437,10.75210857,38.38729095,-255.882843,-47.96372986
2227,8.745754242,-1.798296094,10.89813805,11.06566334,-254.7194214,-47.24003601
2228,9.667998314,-2.605998993,11.02953625,6.060288906,-251.7761078,-42.72452545
2229,10.58789825,-2.702397108,10.87482166,9.172330856,-236.1547699,-37.93161392
2230,11.62528133,-2.017299414,9.815729141,19.98785019,-212.6427765,-26.91080666
2231,12.40623379,-3.327933788,10.74927902,11.22512341,-163.3206024,-14.42986393
2232,12.13891983,-4.064379692,9.729793549,-0.383277655,-81.96430206,-10.51169205
2233,11.01831532,-3.720947504,10.33586025,18.24121094,-44.35788345,-12.39280033
2234,9.408322334,-0.87029177,8.552562714,21.04104233,-13.65439224,-7.217329502
2235,9.520425797,0.20188047,5.188092232,9.427573204,4.500864029,-8.0157547
2236,10.44083309,-0.561916053,3.333925009,8.512704849,32.61543274,-7.668755531
2237,10.65487289,-0.292106926,2.063010931,2.12480092,62.55825806,0.678457677
2238,9.968344688,0.076566294,2.731891155,0.224796578,128.7016449,0.457066119
2239,4.346249104,-1.050408602,5.681168079,-16.53313637,101.4863739,-0.165195242
2240,2.163744926,-1.489327192,2.012714386,-111.3414841,46.44064331,-3.585552216
2241,6.104341507,1.07640636,-8.437213898,-45.53285599,87.13871765,23.00828362
2242,-0.658011556,-1.054473758,-1.311633945,18.48946762,112.7309036,29.9480648
2243,-1.605536103,-0.056687031,1.735203385,9.72742939,99.67709351,9.492858887
2244,1.721903324,-0.361539483,4.797367096,-2.896358967,92.52111816,7.598602772
2245,1.085934162,-0.038986105,5.437347412,-7.498875141,85.00160217,22.14019394
2246,-1.628291249,-0.197148666,6.765272141,-11.95462418,69.08534241,29.61353874
2247,-1.30609715,-0.436395377,7.186533928,-8.06394577,45.88243484,26.80537987
2248,-1.029888272,-0.732979476,5.996135712,-2.987564564,19.90290451,22.33724594
2249,-1.825852394,-2.32699132,6.204763889,-4.193600655,5.627280235,22.49922943
2250,0.586979032,-5.418239117,8.433598518,-3.318383455,-2.108259201,12.67967033
2251,2.967270613,-3.311177969,9.699328423,8.834252357,-13.25969505,1.337022543
2252,1.934183002,0.993187129,9.832221031,17.10018921,-39.03051376,-2.883495808
2253,1.12250042,0.057357542,9.390372276,19.83082962,-75.11739349,2.451270342
2254,3.072429895,-2.2797575,9.571116447,4.549333096,-89.01259613,4.813215733
2255,6.152987957,-3.582740545,10.06581688,-11.13032913,-85.51766205,0.136000589
2256,7.659831524,-3.648616076,9.969695091,-8.15661335,-70.94186401,-1.426409721
2257,7.462080956,-3.612056017,10.14502525,-0.140679374,-57.22958755,7.098161697
2258,7.165892124,-3.908947706,10.80024624,2.9895823,-45.55852127,10.26454163
2259,7.346409798,-3.040799379,11.48088551,5.096615314,-38.40885925,7.744752407
2260,8.199571609,-2.637658834,11.48721504,6.636894226,-37.51608276,8.785734177
2261,9.903141975,-2.309741735,11.5251255,-6.220211506,-23.612463,6.214160442
2262,9.675766945,-2.582287073,11.21005726,-12.48410511,1.548852086,-5.392417431
2263,11.00163364,-3.098948956,9.868357658,25.62098312,32.2314682,-6.542292118
2264,9.884764671,-3.095029593,9.661650658,54.07361603,58.09503555,6.454729557
2265,7.258061886,-2.607040644,9.223577499,28.52934265,116.0211029,5.476585388
2266,8.103555679,-2.995427132,9.708229065,20.74095726,146.1575623,-1.270154357
2267,9.677929878,-1.875910521,8.266546249,20.51752853,159.4499054,12.95052624
2268,8.823735237,-1.982368827,7.244804382,37.85901642,168.1733246,21.54324722
2269,8.83741188,-3.034894943,7.537691116,27.18271255,170.5424347,30.47077942
2270,7.038387775,-2.820129156,6.099651814,22.52890205,177.3943634,21.85396767
2271,5.848365784,-1.167708993,4.426134109,66.44608307,173.2519379,18.69311523
2272,5.074150562,0.084638201,5.421790123,79.8065567,171.0965271,16.85662651
2273,2.746463776,0.787096679,5.880670071,38.4143486,186.4807434,21.6746521
2274,1.05421114,1.424394488,6.391117096,20.45765495,198.8535156,25.37320328
2275,-0.662745595,1.036350965,8.594540596,-8.334069252,203.2874603,38.23530197
2276,-1.808327436,-1.740652561,9.919608116,-24.32875824,191.5566254,51.90777588
2277,-2.367074013,-2.824424267,10.74579334,-37.0252037,189.2704468,49.51707458
2278,-2.188818932,-1.989826202,9.913027763,-39.51977921,172.0510864,42.69483185
2279,-3.294970989,-2.00510931,11.02121162,-32.50304413,155.9655457,29.57482147
2280,-4.688178062,-0.606186211,9.783612251,-36.55955505,137.7937927,14.50823593
2281,-3.573876381,0.150632963,8.947869301,-41.04120255,111.336647,8.496181488
2282,-1.827193618,-1.227392912,8.924982071,-44.91632462,59.0376091,18.65744972
2283,-3.474975348,-0.373148531,7.231737137,-18.72858429,39.34020233,18.79933357
2284,-4.395338535,-1.059904933,9.504749298,-49.93088913,8.479306221,11.51390171
2285,-4.350503445,-0.890048087,10.54588413,-71.4467392,-9.267260551,1.836540937
2286,-3.903046846,-2.952540159,10.57197666,-53.38284302,-30.97701263,-5.822902203
2287,-2.625050545,-3.837914705,9.864757538,-21.00848007,-65.09111023,-19.12843513
2288,-1.985063791,-3.459563732,10.36654663,4.338452339,-104.8366699,-34.7515831
2289,-1.725087643,-2.537163973,10.48076344,34.47579575,-142.6152649,-45.65443802
2290,-0.084573954,-2.016691208,10.4792347,31.67873192,-169.9357605,-47.48653793
2291,0.70199585,-2.537922859,10.00651646,10.35676289,-187.4505463,-39.18112946
2292,1.454190969,-3.768089771,10.62183857,18.10185051,-200.6955872,-46.29513168
2293,3.427724123,-3.913887262,11.53579426,6.398917675,-208.460495,-58.40723038
2294,5.472735405,-3.604211092,11.60490513,-0.65452832,-217.1383362,-61.41119385
2295,6.940675735,-3.056404352,11.82938766,4.268401146,-229.175354,-60.92784119
2296,7.023532867,-3.446823359,11.81234169,9.073839188,-233.4371033,-61.24698257
2297,7.552251816,-5.109547138,12.34714222,28.17816925,-216.6129608,-66.21080017
2298,8.294582367,-4.582478046,12.80133438,34.67551041,-201.4582367,-65.36332703
2299,8.795854568,-3.588284016,13.05268192,31.40352058,-194.2330322,-54.26539993
2300,8.689451218,-2.730547428,12.41968536,26.64390755,-188.1313171,-45.34610748
2301,9.040171623,-2.55232501,9.860959053,29.48957443,-178.756546,-34.25744247
2302,10.11094856,-1.791995883,5.663713455,9.175059319,-147.44841,-14.00103951
2303,11.04561424,-1.557889462,5.9375453,-12.356287,-79.73227692,-8.719993591
2304,10.0966301,-0.991622806,7.039586067,-25.9151516,-29.10201836,-10.17760944
2305,8.238476753,-0.114816345,7.92309618,-24.39232445,-25.55376434,-3.976966143
2306,8.933703423,-1.929241419,6.530649185,-3.756219387,-10.32246017,-2.972829103
2307,8.415523529,-1.950197935,7.233705044,-72.06665039,14.6958437,3.644110441
2308,2.983705282,1.651762366,2.365656376,-76.184021,30.10360146,7.398513794
2309,1.482706428,0.754741311,-0.524585366,-27.10756874,42.17248535,1.579068899
2310,4.192379951,-1.236335754,2.089337111,-9.564785957,51.08221436,11.15706062
2311,2.646727085,-2.683492184,2.980913639,-12.88927174,44.71079254,10.57250214
2312,0.996887624,-2.502817631,5.622825146,7.635155201,42.47304153,12.51456261
2313,1.450518966,-2.002296686,7.133039951,18.13029671,55.59793091,11.9048996
2314,1.300411701,-1.264779925,8.067111015,20.16975212,36.38521576,8.094734192
2315,0.247020349,-0.997513831,8.993127823,11.93369198,9.25170517,-0.746867001
2316,1.275048256,-2.577353239,8.638882637,13.30416584,-10.55476189,-7.399209976
2317,2.467908382,-2.02324295,7.674188137,28.26049995,-19.58182144,-12.91806889
2318,2.903124094,-0.984088838,7.937889099,30.98169327,-23.71813011,-5.995581627
2319,2.242194414,-0.742199779,8.123843193,17.30691338,-31.58839989,-10.97965431
2320,3.484219551,-2.560179234,8.841496468,7.430678368,-39.63138199,-8.505272865
2321,4.474302292,-3.288158655,8.88332653,5.416072845,-39.05141449,-6.936636448
2322,5.277223587,-2.848843098,9.206465721,15.49324799,-38.50034714,-3.579537392
2323,4.850022316,-0.902087986,8.963700294,23.28417015,-43.20343018,-11.11378384
2324,6.290740013,-0.695839167,8.582901001,21.19448853,-46.98733521,-10.19916439
2325,7.46471262,-1.491807938,8.327023506,11.37453175,-42.59339523,-7.397601128
2326,7.876521111,-1.239809155,8.396888733,7.023153305,-24.29092216,-6.574077606
2327,7.997895241,-0.826135993,9.01153183,-8.648638725,-15.46006298,-2.628980398
2328,7.632656574,-1.727030873,9.250181198,-16.03120232,-10.14210415,-4.100931644
2329,7.951157093,-2.235507727,9.795087814,-13.78606987,-2.36049366,-2.422642946
2330,8.825943947,-1.480325699,10.00408077,2.850840807,-2.299201012,-0.169351161
2331,8.61346817,-2.04904294,9.773281097,15.25679874,5.083683491,-0.558779895
2332,7.875327587,-3.911548853,9.593502045,39.45871353,10.56060696,1.26421833
2333,8.916579247,-4.336159706,10.21358871,34.31253815,37.38652802,5.763082981
2334,9.740667343,-2.418390274,9.162706375,9.219103813,89.59863281,10.70435143
2335,9.584650993,-0.140568897,9.144108772,-12.97136211,130.5978699,22.40991783
2336,8.82567215,-0.580349743,9.112633705,-39.43212891,165.6077118,25.20740509
2337,9.17239666,-1.202562809,8.484435081,-52.2416153,189.4886932,27.76072693
2338,9.039201736,-0.272954762,5.919458389,-40.17987061,198.6575775,27.77293396
2339,7.420125008,-0.139934123,3.797477722,-13.01570129,194.0575104,34.04249954
2340,6.277192116,-1.511352658,2.257334232,1.69753015,199.9295959,36.11138153
2341,5.530508518,-1.339489341,2.637181997,-1.878712893,200.8609009,39.53818893
2342,3.497758865,0.365236878,3.341490269,-5.770051479,207.3634338,46.64608765
2343,0.945463181,-0.274696946,4.460161686,-19.7155056,213.9437866,52.14431
2344,-1.728467464,-1.471930861,5.539268494,-41.45707703,216.0659943,56.67081833
2345,-3.693259478,-2.497762918,7.063439846,-23.55882454,200.8109283,54.8842926
2346,-4.089321136,-3.267066956,10.45174694,-46.64138794,218.6129456,44.25632477
2347,-4.572095394,-2.698428392,10.9971323,-73.29745483,177.4380341,41.04999161
2348,-5.229506016,-3.151451349,9.429607391,-64.89057159,127.5501099,34.79611206
2349,-3.748344898,-4.439720631,11.39009476,-67.14055634,90.55443573,25.70263672
2350,-2.530699253,-3.369882345,8.460285187,-7.20361042,61.9160881,26.10201645
2351,-3.81157136,-2.593737602,10.39871979,17.47003174,37.40807724,19.83516693
2352,-3.191402912,-1.952069759,9.386414528,5.772382259,7.846654415,11.43482971
2353,-3.077780962,-2.135486126,9.458994865,8.128294945,-15.01741886,0.486417651
2354,-3.102649927,-2.655988693,9.954247475,2.004844666,-38.27005768,-7.49630785
2355,-2.827470779,-3.69291091,9.962512016,4.349137783,-47.50887299,-12.64320755
2356,-2.426418304,-3.138346672,11.3486414,7.679199696,-63.29701614,-26.05917358
2357,-2.221740246,-2.182857037,10.69751167,14.29909897,-86.46615601,-36.27713394
2358,-2.097935915,-2.188788652,10.69592571,12.81934166,-118.7642746,-41.4934845
2359,-1.107999682,-2.366110563,10.11053658,5.318619251,-149.7288513,-39.45272446
2360,-0.067987382,-2.818819046,11.23813057,5.837727547,-169.001297,-39.07375336
2361,0.6087749,-3.645492792,11.65619564,2.226319313,-178.1179352,-40.99724579
2362,1.850240946,-3.304234505,12.30867386,9.457746506,-187.3664398,-44.02613449
2363,3.266033888,-2.397417307,12.58304691,15.65810299,-202.9068146,-48.35057068
2364,4.460370064,-2.139498234,11.88972664,28.77185059,-218.0182953,-47.27383804
2365,6.671221733,-3.623598337,11.97919559,60.02236557,-225.9369354,-47.55917358
2366,8.762836456,-4.136000633,10.96533298,32.92042923,-219.5860138,-41.98891449
2367,7.283978462,-3.992603064,9.31952095,29.05073547,-203.1837463,-33.80288696
2368,6.284874916,-3.618423939,10.2181015,7.522386074,-180.9115753,-39.3740921
2369,7.986026287,-2.432484627,11.81972504,-3.401638508,-182.7812958,-45.20207596
2370,9.565423965,-3.511723042,12.96782684,-11.15198135,-180.844162,-42.92459106
2371,9.290360451,-5.091970921,11.94067383,8.590845108,-175.5721893,-37.87924957
2372,9.320165634,-3.461657047,8.504257202,38.58690643,-162.2534943,-38.75244141
2373,10.8656683,-2.809365749,8.746702194,48.88714981,-126.3448105,-35.4297142
2374,11.41606236,-1.898616195,10.14774895,33.30462265,-46.50280762,-32.40055466
2375,9.613602638,-1.871800184,9.415961266,50.33792114,-23.38144112,-10.63593292
2376,9.102052689,-1.5797261,6.837951183,39.66303253,3.814040422,-4.726504803
2377,9.003432274,-1.409327507,5.271800518,42.05875397,12.92390442,-2.612871885
2378,9.394184113,-0.356705666,3.241737604,26.39575768,30.67436028,-2.857177019
2379,11.06059837,0.006028462,2.680309057,5.330953598,50.4428978,4.0604496
2380,5.521494865,0.506849051,1.882950187,-20.98668861,79.66751099,12.93777084
2381,5.638346672,0.956641257,1.826481938,-26.01956177,37.63917542,7.997080803
2382,9.679729462,0.956528604,0.75459224,-116.0577011,85.90625763,34.98425674
2383,0.608005226,2.354068041,-2.550004244,-81.63556671,106.9072952,43.09435654
2384,-2.444716692,0.954736233,2.365920782,-51.43712234,92.23791504,20.57748604
2385,1.417654037,-0.340036541,3.962974072,-73.44200897,99.22832489,14.81167889
2386,0.528532267,-1.761742949,5.458974361,-72.83998871,74.37805939,10.95985985
2387,-0.374131799,-1.736170173,5.587051868,-58.72721863,49.73809814,12.31669903
2388,-0.657473147,-1.760967255,6.433320999,-36.88008499,30.90632248,12.67965603
2389,-0.260197371,-1.386725903,6.418778896,-34.74967575,17.90795708,8.768947601
2390,-0.303387582,-3.415042639,5.963885307,-12.35324287,-2.261769295,4.997008801
2391,-0.083662264,-4.456896782,7.151202202,11.38168335,-10.44772148,1.335824847
2392,2.249757528,-4.171937466,8.637397766,17.95706558,-19.23854065,-5.518052578
2393,2.994490385,-2.09004426,9.306261063,24.9842701,-34.98784256,-2.830631495
2394,1.596102357,-1.1378479,9.055139542,26.64443588,-54.28190613,6.743892193
2395,1.540682435,-2.535915852,8.801033974,19.589674,-67.66043091,5.446207523
2396,3.530581713,-4.067142487,9.532621384,5.920304775,-69.65498352,-4.929761887
2397,6.196068764,-3.907442331,9.708493233,2.91165328,-66.28952026,-12.32811546
2398,7.286367416,-3.807850838,9.591168404,15.01308537,-59.67473602,-10.4469099
2399,7.425068378,-3.724291325,10.08575344,38.77201843,-51.63268661,-8.068775177
2400,7.787181854,-3.102460384,10.46905899,55.15602493,-44.89853668,-2.956058979
2401,8.327922821,-2.499948502,10.82215691,69.97527313,-41.17411041,-6.070780754
2402,8.296841621,-1.796082377,11.30820274,79.2542572,-44.11909866,-8.148919106
2403,8.831633568,-1.334605217,11.67602348,86.94720459,-50.51000595,-2.597156525
2404,7.952013969,-3.063473701,12.85125256,54.08037949,-9.851044655,-7.710505009
2405,10.08311939,-2.904156923,10.62444305,11.84334469,24.21011734,-23.13235092
2406,10.91781712,-1.972236156,9.204696655,18.08444405,43.68065262,-25.30718994
2407,8.957357407,-1.517292738,8.37949276,14.42045403,65.16418457,-16.60213661
2408,7.273436069,-1.758817196,8.921338081,25.33470535,87.9352417,-15.7165184
2409,8.362873077,-1.365695834,9.933799744,13.1362114,116.8486633,-9.209073067
2410,10.10716724,-1.48159194,9.475236893,8.942361832,154.7043152,-3.929589748
2411,9.886919022,-1.512442231,8.601833344,37.94849396,157.209137,10.65056038
2412,8.63659668,-0.529188275,8.022554398,10.80999756,169.536377,17.84573174
2413,8.360246658,1.659392118,5.098596573,-1.440686345,185.195694,22.75984955
2414,8.15079689,1.224250436,4.167690754,7.36988163,193.5971222,26.21010208
2415,8.001719475,-0.47055316,4.248675823,-18.98224449,211.6934204,32.54687119
2416,4.931062698,-0.012564298,4.450530052,-28.17432976,223.5443726,34.51950836
2417,2.606520891,0.81047219,4.880554676,-7.795026779,218.9129333,40.2434082
2418,0.246340662,0.629445076,4.383433342,13.69415379,203.5206757,45.92127991
2419,-2.54638195,-1.239979744,6.046963215,-9.653693199,205.1833496,50.0582962
2420,-3.585749149,-2.796390295,7.030417442,-33.18251038,205.2053375,51.94891739
2421,-4.138683319,-3.305527925,9.563357353,-49.88611221,200.3795319,52.93113708
2422,-4.057530403,-0.276851475,10.5757513,-67.11032867,180.6708984,48.43787384
2423,-3.784689665,-0.809651434,12.83190632,-74.47338867,168.6781769,37.26616669
2424,-4.097046375,-2.391798019,12.65218925,-112.9991913,141.7518616,33.49263763
2425,-4.763989449,-1.041524529,7.502253056,-32.81082535,82.49675751,38.97525406
2426,-4.265208721,-1.924600363,7.574538231,5.104728222,46.35204315,38.36514282
2427,-3.993255138,-2.935750484,8.624728203,-20.82965469,27.29106903,26.24738503
2428,-4.134541988,-2.371278524,10.18731308,-22.41356087,19.16769981,13.79421139
2429,-3.70061326,-2.127008915,11.41482162,-25.58719635,-9.112285614,-1.89354527
2430,-3.403527975,-2.147689581,10.16156673,-5.680332184,-62.43602371,-11.33737469
2431,-3.043083429,-3.017231941,10.21046734,10.29195404,-93.53053284,-20.35528946
2432,-2.432516813,-3.584497929,10.66440964,17.10919762,-118.996582,-30.04759407
2433,-1.691920519,-3.593914032,11.71664143,30.58624649,-143.1762543,-30.9581089
2434,-0.539726019,-3.221499205,11.32419109,30.78800964,-171.4860992,-31.94880867
2435,1.030796051,-3.895883322,11.73940277,26.84343147,-189.5765839,-34.42564392
2436,2.009359121,-4.076898575,11.8708601,31.36561203,-207.2912598,-40.66262817
2437,2.48729682,-3.920325994,11.8667469,39.49423599,-223.1154938,-44.42797089
2438,3.791996241,-3.469286442,11.50604343,46.54880142,-232.0087128,-54.30096436
2439,5.206712723,-2.145021439,12.03928375,43.82633209,-239.0467834,-53.59056091
2440,6.448419571,-1.027079105,12.26074791,33.95136642,-249.236618,-46.61949921
2441,6.616508484,-0.847980857,12.03741264,20.84264755,-245.2584076,-36.89238358
2442,6.872072697,-2.458086014,10.96079063,4.580084801,-225.0840912,-38.00647736
2443,8.123192787,-0.418580949,10.17167187,6.559354305,-199.5726471,-37.04198456
2444,8.91047287,0.755060554,9.779665947,0.989238083,-194.5231934,-19.5666256
2445,11.23436451,-2.769742012,9.823328018,-2.607986212,-153.2793732,-5.241560936
2446,10.45513916,-4.4851408,10.31452465,-4.707884312,-100.2692184,-4.676072121
2447,9.063288689,-3.426494598,10.53587151,-9.870093346,-44.7163353,-0.118574858
2448,7.807602406,-1.49053812,9.303890228,-15.70550632,-11.84912586,7.454498291
2449,7.987335682,-1.869874239,7.026447296,-14.90108776,0.847276092,17.27168083
2450,7.903608322,-2.277133703,4.528398037,2.158851385,10.29497719,12.80068111
2451,8.872585297,-1.48877871,3.869525433,21.248106,31.38487244,5.787393093
2452,8.392669678,-0.07262861,3.772086382,10.96974468,66.60545349,19.32406044
2453,5.336770535,-0.7161327,6.823303223,-27.44828606,100.1077423,31.97480774
2454,1.728903174,-0.681277871,3.626707792,-61.1701355,93.49325562,26.84764099
2455,0.848585367,2.029654503,2.345420837,-48.35264969,60.9047966,30.84452248
2456,-1.835391164,-0.132318676,5.510604382,-6.817685604,68.54029846,30.33293533
2457,-1.097398043,-0.648209035,6.792770863,-24.58972168,34.00074005,8.321434975
2458,0.798066616,-0.338414103,5.220954418,17.25228119,7.504446983,0.899948061
2459,0.722261488,-1.536240578,7.340543747,9.199220657,-7.625172138,-3.8802104
2460,0.362070471,-1.18931973,8.424904823,-6.315968513,-11.90850544,-5.096085548
2461,0.833459973,-0.041456617,9.03969574,-3.930185556,-20.76781082,-7.592077255
2462,1.654204011,-0.768941283,9.027683258,-7.710039616,-37.10412216,-7.16326952
2463,2.319795132,-1.745290637,8.128087044,-4.635906696,-52.86810303,-4.802723885
2464,2.713716507,-2.218774319,8.235715866,-9.449652672,-60.55142975,-10.47428894
2465,3.522577047,-0.87838167,9.508384705,-14.82115936,-65.90909576,-10.5006752
2466,3.820614338,-0.470819294,9.334802628,-15.5749197,-72.31264496,-0.171544358
2467,4.250997543,-1.81166482,9.134924889,-14.78230667,-81.56201935,-4.597347736
2468,4.946591377,-2.705686092,9.062414169,-23.30916786,-77.14453888,-6.894918442
2469,5.750566483,-2.683106661,8.8721838,-18.54621315,-65.08976746,-2.153076887
2470,6.53068161,-2.092293978,9.359444618,-7.330714703,-59.39929962,-3.874379158
2471,7.866640091,-1.957368731,9.189886093,-6.634617329,-59.17169952,4.458759308
2472,7.099866867,-2.573064804,9.628253937,-9.667332649,-53.00987625,6.311810017
2473,7.282419682,-3.004036665,9.592544556,-7.476034164,-41.0378685,3.407566309
2474,9.144818306,-2.896109343,9.424451828,7.854029655,-22.77141571,-2.147911072
2475,10.21242714,-2.996656895,9.648238182,29.65544128,3.343999386,-12.24373436
2476,8.887304306,-3.498633623,9.710934639,40.94580841,29.20840263,-6.594381332
2477,8.515559196,-3.198949575,9.322943687,30.35202599,39.21458054,1.74801147
2478,8.706130028,-2.632272243,8.862611771,15.33447456,66.15914917,1.728994012
2479,8.095761299,-1.781782985,8.782456398,15.37271881,98.07183075,0.734770596
2480,7.428704739,-1.24631238,10.01170731,8.372297287,122.7120438,4.22325325
2481,8.179148674,-1.362031579,10.21193218,-8.315958023,147.2946014,11.0515995
2482,9.050570488,-2.595730066,8.375195503,-31.89764595,169.0765381,21.18915367
2483,9.04205513,-2.890640974,5.893230915,-50.69578552,192.9049988,30.40184212
2484,8.72332859,-2.680407047,4.589185238,-28.80482483,217.0485382,37.4724617
2485,7.684685707,-2.137548208,4.050099373,-9.830539703,221.8945923,40.785923
2486,7.049258232,-2.349419832,2.88083005,19.95868301,222.4307709,39.31126785
2487,6.191469669,-2.07807827,2.811812639,21.39025688,219.6790619,34.6919136
2488,3.462632656,-0.812897325,2.319864511,39.83158875,218.5361633,35.99208069
2489,-0.7302742,-0.781815708,3.705143213,30.62589264,218.5447083,35.90499878
2490,-3.965774536,-0.463400126,5.712679386,6.337019444,215.7265472,37.88855743
2491,-5.213861465,-0.187247321,6.854207516,-15.58016205,191.3358154,42.24726105
2492,-5.00492239,-2.848876238,8.773179054,-61.38954926,169.2593689,45.91958237
2493,-5.273648739,-4.433204651,9.697366714,-92.24819183,135.082489,49.0577507
2494,-4.276980877,-4.385648251,10.49090481,-69.68160248,104.9457855,44.74708939
2495,-3.837139368,-4.059693336,11.80938148,-40.5017128,94.9747467,31.54269791
2496,-5.718216419,-3.882402658,10.40548134,-9.299753189,71.81162262,9.020462036
2497,-3.667035341,-2.540369511,9.507476807,23.74496269,32.1142807,-0.796809137
2498,-4.07390976,-1.771307826,8.366339684,49.37080765,-5.788016319,-10.30043888
2499,-2.767698765,-2.906662941,9.375829697,23.04475021,-47.39258194,-17.31681061
2500,-3.162051678,-2.93937993,9.531030655,0.51320976,-64.30754089,-17.80971909
2501,-3.647958755,-2.328905106,10.26366711,-6.604084492,-68.95909119,-17.59834099
2502,-2.310531139,-2.857594013,10.49455261,-1.993549109,-86.38523865,-19.64464569
2503,-0.781814456,-3.50403142,10.66402149,16.84419823,-104.636467,-31.00073624
2504,-0.506689072,-3.532147169,10.9741621,24.34173393,-118.9516525,-33.81907272
2505,-0.387926161,-3.232565641,11.24749088,27.9476223,-130.1054077,-31.99135971
2506,0.031153932,-3.340493441,11.80707645,29.14681435,-143.0317078,-41.32173157
2507,0.498769879,-2.410210848,13.00210762,29.84850693,-158.1180267,-51.49520111
2508,1.668768167,-1.85123992,13.23575974,16.16254807,-178.4640656,-45.40597534
2509,2.235693216,-1.559716105,12.47697258,18.23743629,-199.0568848,-35.12337494
2510,2.86955142,-2.315855265,12.52069187,27.77432823,-225.9848785,-30.09612274
2511,4.236756325,-3.419139147,12.00579166,39.592659,-248.2895355,-24.98054695
2512,6.487118244,-3.667100668,10.55613518,48.29522324,-235.571991,-29.51427841
2513,7.091682434,-2.641124725,10.30444813,39.7444191,-214.768692,-31.75027847
2514,7.41193819,-2.495443106,12.0191679,17.16724396,-214.3387604,-22.8069706
2515,7.685096741,-3.165243626,12.82798958,-1.850555301,-218.1858978,-20.76156235
2516,8.811309814,-3.5540452,12.1607399,-20.909729,-217.5776215,-25.09190941
2517,9.403568268,-3.074872017,10.65474701,-23.08786964,-202.0355988,-30.50692749
2518,9.563775063,-1.469588876,10.28995419,-34.81355286,-178.9900208,-31.69401169
2519,10.06591606,-1.296227574,9.991743088,-59.47032928,-147.2984772,-33.60833359
2520,10.13710022,-1.211563587,8.66512394,-46.14029312,-115.5874557,-13.067873
2521,10.79617786,-2.827478886,7.189126015,-59.10471344,-77.12976837,2.013756752
2522,10.11928177,-2.744930506,5.223574638,-65.6049118,-19.24186134,7.606593132
2523,9.620383263,-2.220281124,4.57516098,-62.2584877,31.43060493,14.49153423
2524,9.381814003,-2.277014017,4.233451843,-53.65099335,71.8460083,10.90729618
2525,8.919644356,-0.932603955,4.398367882,-21.31809235,70.6419754,-0.340681076
2526,11.75655174,0.033550259,1.673198104,-29.34010506,70.73202515,-0.954259217
2527,10.38655567,1.847841024,1.242178082,-52.76828766,118.0990143,22.21842384
2528,3.015432835,1.464350224,-1.153274298,-65.25613403,113.6516724,40.60778046
2529,0.557393551,0.177817658,-0.981054306,-68.7652359,107.5783463,30.61349869
2530,0.62698096,-0.800254464,-1.479748368,-56.06585693,78.53353882,42.89319992
2531,-1.196598768,-3.290400267,1.98481369,-38.68851852,85.95823669,37.04629517
2532,0.379732668,-3.451695681,3.463792086,-14.49883556,77.06723022,29.7466011
2533,0.873023272,-3.118163109,6.49441576,-6.522598743,69.48947906,18.87289238
2534,0.35612759,-2.85595417,7.602879524,4.323989391,68.12532806,12.72854233
2535,-0.944567323,-2.114961147,7.038163185,29.8643055,55.78130341,12.76909924
2536,-1.413963795,-2.398932457,6.088172913,55.72258377,23.27705002,1.263253808
2537,-0.889014065,-1.890283823,6.094735146,56.02898788,2.460568905,-2.028791904
2538,1.406891346,-3.38699317,7.62853241,42.48252869,-10.05451202,-4.109687328
2539,2.578665257,-4.681324005,8.788880348,51.74230194,-14.61282635,-7.760472775
2540,1.3408463,-2.411590099,9.532732964,67.87542725,-29.41672325,-9.886810303
2541,0.689609945,-0.682153106,9.288640976,63.46623611,-50.77956772,-14.56068134
2542,2.281088591,-0.535465121,9.66390419,44.21885681,-68.5280838,-12.28909016
2543,4.235791683,-1.912287116,9.725146294,24.98763657,-76.11827087,-10.39402485
2544,6.83147049,-3.549722195,9.792673111,12.50517178,-71.3671875,-14.49266052
2545,8.338634491,-4.350933552,9.919829369,13.02291489,-58.94260025,-7.212604523
2546,7.545694351,-3.986125708,10.68488693,15.4366703,-44.17444611,2.033555269
2547,6.701971054,-2.579110861,11.72435951,6.320696831,-34.40752792,-0.621981502
2548,7.943278313,-2.0765903,11.03557682,19.16331863,-34.88422012,-0.293369502
2549,8.879193306,-2.111299992,9.959113121,53.66485596,-33.28364182,5.326549053
2550,7.999015808,-0.605204403,8.413903236,53.71101379,-0.342650175,2.458889008
2551,7.008411884,-3.285082102,13.5602293,40.12667465,19.84308243,-11.48290062
2552,7.281836033,-2.473901987,10.86231041,24.83452797,12.27764416,-26.10590363
2553,8.385873795,-4.258393764,11.01208687,36.668396,34.39700317,-24.04060555
2554,8.390867233,-3.640586853,9.298416138,5.329237461,65.536026,-15.78021526
2555,9.660293579,-2.300506592,8.24352169,10.32331181,97.49951935,-3.579060793
2556,10.31066132,-1.95795989,9.701982498,-6.8604846,139.0783691,4.264543056
2557,8.829911232,-1.125719786,10.50392342,-18.88495255,174.5570068,6.676375389
2558,8.36506176,-1.322188735,9.721124649,16.67893028,159.5353546,13.14027786
2559,8.661790848,-1.595553398,7.831648827,30.4918766,156.0002747,11.75644207
2560,8.47488308,-0.55744493,6.564559937,0.3416816,166.8922729,12.44368744
2561,7.478510857,1.39352119,4.413880348,-10.46530628,177.2610016,15.95213032
2562,6.789470196,-0.135814965,5.019289494,-13.77563953,185.2763672,21.81368446
2563,4.838713169,-0.612125456,5.063671589,-23.64492798,183.4391327,32.66133118
2564,1.824975371,-0.541875899,5.165322304,-5.407787323,174.6431732,48.17958069
2565,-1.189957857,-1.373157859,6.428497791,-11.98247719,178.4053802,59.00817108
2566,-1.764421344,-1.583253264,7.575089455,-32.91498566,176.9792938,64.36528015
2567,-1.761564374,-2.313862801,8.799875259,-39.10192871,171.3222046,69.57621765
2568,-2.265049934,-2.155008316,8.857036591,-61.80676651,171.4690247,67.20352173
2569,-4.823862076,-2.769247532,9.546976089,-58.29393005,172.0022888,53.97034073
2570,-5.334068298,-2.862006664,10.54092407,-89.56474304,157.7201538,38.56867981
2571,-1.201692581,-3.287348509,12.04518318,-100.59758,131.9166412,38.03838348
2572,-3.726923227,-2.964210987,8.205231667,-42.36303329,75.72396088,40.84144974
2573,-5.401939869,-3.436133385,8.253056526,13.58961391,44.28434753,29.81619644
2574,-5.644412994,-2.923562527,8.460577965,4.348619938,8.038492203,18.40816689
2575,-4.397404194,-2.183194399,9.1135149,-0.299957007,-13.20577145,6.910184383
2576,-3.264260292,-1.621627808,10.41249466,-6.602940083,-43.09778214,-3.414906263
2577,-2.963873148,-2.221460342,11.11354256,-22.9738903,-66.56864929,-16.33380127
2578,-3.438599825,-3.102837801,11.04790878,-5.271310806,-96.77912903,-24.01047897
2579,-2.643061876,-4.566134453,10.01985741,32.10562134,-133.4612732,-31.19284248
2580,-1.834193826,-4.681370735,9.892150879,58.31272888,-159.0730896,-42.09056473
2581,-0.910251617,-5.144665718,10.07216263,64.08351898,-180.3197327,-46.29719925
2582,0.91781956,-3.732487679,10.97155857,75.52467346,-195.1281281,-46.05482101
2583,2.530741453,-2.86626482,11.4761982,56.3897934,-215.3181305,-48.75624466
2584,4.38539362,-2.804233313,12.26373863,43.91639709,-225.463623,-48.65530396
2585,5.768202782,-0.896863937,12.52193451,35.52783203,-232.9366608,-46.41415787
2586,6.5893116,-1.702438116,12.16478157,32.11584854,-240.2384338,-40.87831116
2587,6.906683922,-3.07844615,10.40599442,41.5014801,-230.3654327,-38.16371155
2588,8.559365273,-2.278360367,9.853877068,50.02144241,-201.3329468,-39.3458786
2589,9.169285774,0.319073141,10.30249882,24.97786331,-161.0289307,-34.26733017
2590,8.381590843,-0.050892182,11.70198441,-17.45349884,-117.7422714,-22.68243408
2591,7.778027534,-1.845549345,11.89934254,-14.51996136,-100.7704849,-5.811324596
2592,9.022882462,-3.883230925,11.67789459,-22.12179565,-75.30168152,5.385743618
2593,9.203243256,-2.998862743,9.490346909,-47.06592178,-35.01638794,6.900600433
2594,8.380205154,-2.70151782,7.773823261,-57.57980728,-3.055163145,0.974805117
2595,7.996760368,-1.60426569,5.543670654,-41.86408615,-6.319886684,-10.94422531
2596,8.118983269,-0.862200618,4.527657986,-14.62877464,-25.84389687,-21.69642639
2597,7.198036194,-0.944792449,4.20281744,13.45931625,-46.97751617,-19.26805687
2598,6.884458065,-1.573022127,4.825932026,27.7473278,-31.3975811,-20.04361534
2599,6.310052395,-1.680262804,7.453898907,-53.31343079,31.26373291,-9.574376106
2600,0.455148995,0.293086082,2.443125725,-92.14435577,8.087814331,16.82864952
2601,0.354756296,-0.603038788,3.340061903,-23.21235466,8.801198959,18.66953659
2602,1.039553761,-4.007884979,6.298724174,-43.24210739,16.59304428,17.48396301
2603,1.141770124,-3.886318684,5.780144215,-18.94039154,14.5622654,16.94318008
2604,1.619443893,-1.996580124,7.156124115,-1.449807286,-1.318311572,6.753513813
2605,2.265130043,-1.944194436,7.596517563,17.97908592,-9.763921738,5.285348892
2606,3.107011557,-0.933771551,8.243360519,17.35147476,-9.102772713,1.458606839
2607,4.529388428,-1.21208334,9.833247185,25.83743477,-1.875103593,1.137769938
2608,2.051047087,-0.626439214,8.068145752,39.62929916,-18.41454697,9.711718559
2609,0.706556201,-0.939541578,7.963993073,13.19079113,-33.54203415,11.16755772
2610,3.101728201,-2.071498871,9.262937546,-26.78251839,-31.22454071,3.309942722
2611,5.035473347,-2.694031477,8.569111824,-27.60108757,-32.48086166,-3.149191141
2612,4.325735092,-2.028008461,8.389239311,-14.59868908,-33.20767212,-8.49930191
2613,3.699009895,-2.691546202,8.267185211,-6.31520319,-43.43141937,-12.747612
2614,4.237528801,-3.311449528,8.804690361,2.866868734,-54.94049072,-15.20067024
2615,5.267654419,-3.519614935,8.557607651,15.17053318,-57.60632706,-15.07756424
2616,6.074058533,-3.423187971,8.534988403,30.40624809,-48.02595139,-13.89200878
2617,6.689237118,-2.414622784,8.550647736,27.45892906,-38.90579605,-14.30686569
2618,7.298990726,-1.82076633,8.805516243,19.12854195,-28.7357254,-10.26708984
2619,7.149292469,-2.135555267,9.025601387,13.22834396,-12.92577267,-7.505453587
2620,7.611255646,-1.71414721,9.079586029,12.50990963,-2.54686451,-6.144810677
2621,7.955269337,-1.313250184,9.145098686,14.12927723,-2.916161776,-6.90664959
2622,8.389897346,-1.700472951,9.317915916,28.58117867,0.355716646,-8.959541321
2623,8.749430656,-2.835412264,9.47388649,52.12208176,21.03232956,-9.303970337
2624,8.38439846,-2.844306469,9.159620285,82.04969025,53.48654556,-3.019864559
2625,7.665133953,-1.374185324,10.3844099,86.68903351,66.3323288,1.156955123
2626,8.583707809,-1.044528246,12.22650528,52.34841919,101.57341,5.778203964
2627,9.672894478,-1.416508317,10.91778088,-5.082904816,158.0291443,4.741246223
2628,9.52084446,-0.940621555,7.696433067,18.23887825,184.7974701,7.200470924
2629,8.828040123,-0.844971061,5.913830757,33.0881424,187.0374146,11.66094685
2630,7.760845661,-0.821435094,3.121796608,10.78026104,190.6515503,13.72721672
2631,7.621807575,-0.973233521,2.981750965,20.42695045,189.6784973,15.02535439
2632,7.746038914,-1.292362452,4.388056755,32.59355164,200.046875,14.36043358
2633,5.009502411,-1.175417185,4.559439659,6.02380228,202.585083,18.32369041
2634,1.63455677,0.995244086,5.363097191,1.131678104,202.47435,28.66114998
2635,-0.998665512,1.01909554,6.157209873,-11.88975525,202.1004333,38.98535919
2636,-2.430148602,-0.766645372,8.572782516,-75.96881104,215.504425,48.77798462
2637,-3.576621771,-0.834582865,9.900587082,-118.7909622,211.808609,51.79029846
2638,-3.07126379,-1.030673385,10.51495838,-131.442627,190.9041443,47.35980988
2639,-4.04665947,-2.954426289,10.19073963,-126.5414963,158.0066986,50.96781921
2640,-5.018451691,-5.143197536,9.483309746,-70.80605316,122.2395248,48.36196899
2641,-4.186332226,-5.316317081,11.2156868,-23.59741402,87.9954834,38.80249405
2642,-4.461740494,-2.972878218,10.39733505,4.002702713,57.84844589,28.51223946
2643,-4.292955399,-1.371118069,9.185360909,22.18486404,27.28859138,16.55814552
2644,-3.400689602,-1.723625064,8.96374321,10.40537739,-10.92908669,10.84912968
2645,-2.569493532,-2.065054178,9.907966614,2.784200191,-31.42097473,6.126029015
2646,-3.024563789,-2.039009094,10.27261639,2.317646265,-45.57570648,-2.093591213
2647,-3.311309814,-2.378093004,10.48689747,14.3801899,-67.47682953,-15.34140587
2648,-1.554420233,-3.840595961,9.954144478,26.32367325,-93.75874329,-27.07170296
2649,-0.451560646,-2.111975908,9.512210846,42.61262512,-102.8980331,-39.32043457
2650,-0.438281476,-0.19859165,10.63812256,36.69510269,-121.4021988,-39.08013916
2651,0.201487035,0.348965049,11.8101263,9.459160805,-144.580658,-33.49370956
2652,-0.023289144,-0.794264436,13.23666,9.648255348,-173.8022003,-31.84759903
2653,0.832560778,-2.131492138,12.66714191,10.3327837,-198.6396027,-26.24271011
2654,3.254483461,-2.176407099,11.94961071,20.22446632,-208.0115356,-28.47547722
2655,4.029673576,-1.726387739,11.17289543,30.17645264,-203.2987213,-29.529562
2656,5.799132824,-3.405022621,12.72319031,37.73350525,-211.0719604,-24.27163506
2657,6.418484688,-3.443632364,11.55381775,30.77892685,-219.2980194,-21.13550758
2658,6.370141506,-2.14666152,11.75372028,31.92647934,-224.8647308,-26.34253311
2659,6.917003632,-2.252575636,12.18263912,22.88824844,-221.9904785,-26.81334496
2660,7.727355003,-2.698676109,11.33752346,14.27755547,-220.2674713,-27.37436485
2661,8.144368172,-2.399229765,10.57843304,1.752807498,-222.7738495,-21.96347237
2662,8.725076675,-2.439314604,10.664814,-2.117107153,-206.1114655,-21.19449997
2663,11.062953,-2.709311008,9.994181633,19.24552536,-168.5414581,-20.09075928
2664,11.7905283,-3.278538227,7.808209896,11.42361069,-113.7144241,-12.29641151
2665,10.19954395,-2.328334093,7.518042088,5.660836697,-42.55810165,-11.1816349
2666,7.731928349,-1.136620045,8.726592064,29.25372124,-0.827715337,-6.061341286
2667,7.243459225,-0.127814293,7.458233356,35.52183533,-5.49834156,1.441495657
2668,7.852577686,0.272328079,4.035579681,28.00256538,-11.44508457,4.589753151
2669,8.784604073,0.977382421,2.251366138,-1.717485309,4.637940884,0.322777629
2670,9.298852921,0.494732738,2.453491211,-54.89543915,33.60295105,-4.725522995
2671,8.521371841,0.566073835,4.945785999,-144.4296265,76.01760864,-0.133493125
2672,5.147246361,0.1824366,3.657648087,-218.5238342,97.69115448,16.38907051
2673,2.056919813,0.96669364,-6.869923115,-114.7172089,79.11021423,8.283695221
2674,0.413507551,-1.594749212,-1.370972395,-33.50939941,75.9707489,31.29631615
2675,0.589216709,-3.360541582,3.32733655,-13.40254498,80.01012421,30.61038399
2676,-0.032317124,-3.483197212,4.924256802,-6.849740505,78.15393066,8.187092781
2677,0.513181508,-2.328169823,6.065596104,-3.440084457,67.57811737,-4.575782299
2678,0.481575638,-0.731936336,6.112622738,5.994568348,48.73464966,0.494796723
2679,0.779771745,0.201615959,7.576152802,15.36790562,28.99267387,10.17191315
2680,0.492827654,-1.540513635,7.701415062,15.3045845,11.35216713,7.143674374
2681,0.865717232,-3.342369556,8.006706238,18.28899574,7.894710064,-2.689234734
2682,0.717379212,-2.837031126,8.137168884,32.98345947,5.508911133,-6.722990036
2683,0.314993203,-1.273542285,9.086215019,41.89505768,-5.216943741,-8.37501049
2684,1.174460888,0.545375347,9.707409859,30.06373978,-24.09412384,-7.511054039
2685,2.256946564,0.019405022,9.784480095,8.587817192,-45.57234192,-0.677153587
2686,3.258502722,-2.645407438,10.01346207,-3.91125536,-55.07939148,-4.325032711
2687,4.434461117,-3.097705364,10.38345528,-4.394493103,-60.70163345,-10.31972408
2688,6.035512924,-3.057950258,10.01479149,-3.531639576,-62.88022995,-14.05924129
2689,6.99408865,-3.402742863,10.33493423,-0.549539566,-55.80071259,-13.66722202
2690,7.007318974,-3.540262938,10.60849857,16.33746338,-47.09280777,-13.50986385
2691,8.311468124,-3.261609554,10.73282719,28.66665649,-39.2400589,-11.55466747
2692,8.372661591,-1.946363926,10.54097652,42.86389923,-38.87417984,-10.03750992
2693,8.052647591,-0.962327421,10.41231823,39.46618652,-29.14234161,-7.462324142
2694,8.194988251,-1.100411654,9.912129402,44.41943741,-23.46535873,-12.77537632
2695,5.972437859,-3.375715256,11.90165329,66.21737671,-9.931138039,-27.81730461
2696,8.196472168,-4.37180233,11.69014549,51.84436417,-11.65818977,-37.08329773
2697,9.251685143,-3.333390951,10.24360847,24.33877563,7.765974045,-30.43777466
2698,10.05872631,-1.084970474,8.780929565,18.23357964,27.26555634,-25.21066856
2699,10.23413563,-0.755895555,9.456456184,2.553314209,66.32735443,-14.52313709
2700,9.443484306,-0.819447756,9.069090843,-27.21421623,101.9030228,-7.599944592
2701,8.223072052,-1.327785015,8.301342964,-24.52437019,111.0956955,1.617714167
2702,8.661774635,-1.474913955,8.037479401,-31.78387642,117.3245773,11.07450771
2703,9.660664558,-1.364902377,7.268790245,-48.38774872,140.3921967,17.55870247
2704,8.666957855,-1.214188933,5.202628613,-33.44945145,150.7983246,20.4854126
2705,7.827861309,-0.848879337,4.112247467,-4.329409599,157.592804,25.81341171
2706,7.216350079,-1.476929784,4.929192066,-13.00701237,179.5200348,23.27334404
2707,5.674716473,-0.467361301,5.200620651,-20.63210487,192.2972717,24.72127914
2708,2.966504812,-0.87299329,5.945370197,-15.93500423,192.8553619,28.98143959
2709,0.999667287,-1.951861262,6.805097103,-23.57363319,198.428299,34.69998932
2710,0.965883374,-1.404535651,7.980064392,-45.89452362,199.0790253,45.20262527
2711,-1.518009067,-0.891990244,7.921130657,-64.70141602,210.8511505,58.32358551
2712,-3.289206982,-1.48959589,7.910138607,-70.8011322,211.09729,56.00383759
2713,-3.072588921,-1.85133183,10.00788307,-83.29570007,195.2878876,55.35929871
2714,-2.503464699,-3.123901844,11.0999136,-80.48833466,157.4311829,52.4481926
2715,-2.288885117,-4.134017467,10.55053806,-53.36017227,121.7517548,52.32502747
2716,-2.392514944,-3.646224499,10.473876,-36.55163574,93.32967377,48.53382492
2717,-3.979028225,-3.470126152,9.998897552,-28.73712349,70.14207458,35.02680206
2718,-3.538668633,-2.694453955,8.680088043,-10.03939247,37.27073288,20.50527954
2719,-2.841567516,-3.072315693,8.571732521,-13.90470505,16.79927063,5.50389719
2720,-3.014731646,-3.099324465,9.285505295,-7.493186474,-6.778565407,-8.998202324
2721,-2.848257065,-3.021918535,9.987267494,-2.578253269,-25.79797173,-17.17750168
2722,-2.780911922,-2.4144876,11.28108215,-6.035194874,-44.78541565,-23.59363174
2723,-2.590575695,-2.561685085,12.39874268,-8.395327568,-64.68481445,-35.44921494
2724,-2.741547585,-3.559263468,12.04698277,2.193675995,-89.48422241,-43.14355469
2725,-2.37505126,-3.925671101,11.40982151,20.77544212,-124.8828354,-47.70100021
2726,-1.270817757,-5.6111269,12.17945004,26.86920547,-151.0572815,-52.69355392
2727,-0.458326995,-6.671719551,13.2704277,15.80463314,-177.190918,-56.91093826
2728,0.078747839,-4.951427937,11.40607071,32.13130951,-204.7617188,-55.74145508
2729,1.982167482,-2.846993685,10.44241333,55.13661957,-228.1351471,-49.53101349
2730,4.368136406,0.589216113,10.55850124,49.67232132,-244.6648102,-40.87172699
2731,5.778820515,2.464632511,9.406668663,33.29146194,-245.0444641,-36.39087677
2732,6.05623436,-0.328030229,9.85483551,22.88640213,-240.8736115,-33.67842484
2733,6.289300919,-2.937471867,9.979453087,38.89691162,-240.4946747,-28.41617012
2734,8.107728958,-3.282392979,10.43988991,56.1256752,-239.3829193,-31.85320282
2735,9.304656029,-3.2065413,10.88769913,50.63425446,-233.9845581,-31.07341957
2736,9.486310005,-2.403855324,10.93175793,32.54388046,-238.7640228,-32.98339081
2737,10.09884644,-2.427045584,9.690110207,20.27316284,-234.789566,-30.37976265
2738,11.11329269,-3.270810127,9.199105263,29.9929657,-197.0229797,-29.80433273
2739,11.28912735,-2.684746504,9.599518776,29.43156242,-142.4592438,-27.46943283
2740,11.02931023,-1.009405136,7.261330128,24.07993698,-134.0917358,-11.68812561
2741,10.17477894,-0.969419301,4.362597942,-0.669110179,-83.9786377,-8.450174332
2742,9.810317039,-1.201536655,4.718783855,-11.62383556,-40.54857254,-9.186131477
2743,9.76382637,-1.222219467,5.210181236,-23.1888752,-10.32789803,-7.49697113
2744,9.048808098,-1.039952636,3.081728697,-20.41338921,11.15578175,-5.102022171
2745,10.05428123,-0.658289671,0.765421867,-17.12844086,55.9448967,2.020808458
2746,10.38748646,-1.168645024,-0.314668506,-22.00961113,115.6205826,6.810077667
2747,6.845408916,-1.302679539,4.943613529,-51.89214706,135.4260406,16.25887489
2748,1.826670766,1.121279359,1.528035045,-58.87636185,109.4741592,24.23602104
2749,2.535778522,1.413419724,0.500825882,-27.35352707,115.7996597,17.89896965
2750,0.777484953,0.268848002,4.119787216,-37.08390808,94.75043488,11.94417477
2751,0.506767035,-1.785291076,3.58485198,-55.47686005,94.13302612,8.072523117
2752,1.54957366,-2.595999241,2.60412693,-30.39495659,62.76720428,15.36051369
2753,3.999721766,-2.227297783,4.776396275,-23.27971649,68.26075745,21.05283165
2754,1.789895177,-0.095528401,5.578778267,-17.8308239,79.10973358,25.58364487
2755,-1.736820817,-0.340154558,7.791856289,-24.60582352,46.03249359,18.44197655
2756,-3.259233952,-0.826106727,7.234863281,-29.26936913,9.521038055,9.248504639
2757,0.412014097,-2.635590076,6.703687191,-25.64491463,-8.746876717,7.925993443
2758,2.239494801,-4.741061687,6.989212036,-4.906619072,-19.24838257,6.12805891
2759,1.93298912,-4.59250021,7.715159416,8.103102684,-24.52357674,2.830689907
2760,2.649433851,-2.919138908,8.811873436,9.670903206,-27.13631058,-2.144621372
2761,3.497385263,-1.587283731,10.15272999,0.849429429,-34.5272522,-2.605731487
2762,4.064129353,-2.44604826,10.13477612,-2.652934551,-49.12269211,3.042257309
2763,5.073200226,-3.977781773,9.870758057,4.520610809,-57.43800354,6.9106493
2764,6.973810196,-4.293304443,9.584300995,19.1716156,-57.11339188,5.627329826
2765,8.339870453,-4.34465313,9.492793083,29.13192177,-45.3079834,2.891159296
2766,8.67643261,-3.923993587,9.85088253,41.88230133,-30.68541145,7.288286686
2767,7.861491203,-3.319422722,10.11807442,50.1590538,-13.95006943,10.8039732
2768,8.286922455,-2.431987286,9.426492691,64.5984726,4.350606441,10.79525566
2769,8.147601128,-1.872754216,11.32487392,66.12268066,16.77601624,9.736069679
2770,7.814476967,-1.035838485,11.0964098,52.16864777,31.7324028,-0.776779294
2771,8.56949234,-1.439950824,10.57643414,25.17570686,47.6322937,-14.60972023
2772,8.624185562,-1.940628767,8.941065788,14.42727757,67.2607193,-15.01203156
2773,7.740787983,-2.844839334,9.428358078,35.68283081,90.49752808,-12.05191231
2774,6.279932022,-2.366595984,10.16355515,40.63397598,109.2102051,-5.238905907
2775,7.059533119,-2.167508364,10.02589226,22.92975235,124.49543,-0.372416884
2776,8.277673721,-1.920964599,8.416934013,0.839772224,149.5578461,2.648235321
2777,9.848167419,-1.811306953,7.174590588,-3.712109327,152.0545654,10.25093174
2778,9.660886765,-2.548000813,7.639687061,-10.63419724,154.2523041,23.90053749
2779,7.817568302,-2.246823788,6.250200272,-3.364267111,161.1585846,33.23575974
2780,7.783273697,-2.488440275,5.659852505,14.73581028,153.6123047,29.25624466
2781,7.032550335,-2.224538803,4.930187225,5.424805641,164.6375885,23.46545029
2782,3.597423553,-1.192269087,5.809713364,12.78470993,175.651886,28.96126556
2783,0.598617733,-1.982879877,6.271027088,8.362188339,188.1192017,28.56388474
2784,0.466290623,-2.886416912,8.226994514,2.954566002,191.4723816,29.02259827
2785,-0.290178359,-1.677665114,9.445128441,-16.61460114,192.0293427,35.50410843
2786,-2.144466877,-1.274392009,8.36195755,-18.25898933,193.0361786,34.26224518
2787,-3.066050053,-2.081718445,7.806155682,-14.6605711,175.5801849,27.74728775
2788,-2.992244005,-1.424926519,10.39387321,-28.07828331,167.0974884,26.84665108
2789,-3.436113596,-1.087144852,12.7182436,-54.04336548,168.9355316,20.37015343
2790,-4.343207836,-1.070569754,10.87641525,-36.18383026,140.7573395,7.126952648
2791,-4.058321476,-1.055441618,8.020483971,-9.590298653,65.46956635,6.830571175
2792,-3.473085642,-0.908481836,8.207058907,-17.83795738,34.59490585,2.078334332
2793,-3.566725016,-1.038547754,9.675002098,-25.53455544,-4.256628513,-2.494176626
2794,-3.828747034,-2.204568386,9.821768761,-21.76065826,-38.73323822,-5.709386349
2795,-3.79569149,-3.107324839,10.67369938,-9.701077461,-56.49834061,-15.20666027
2796,-3.428049803,-3.152499199,11.23855209,16.26366234,-82.11726379,-27.3461113
2797,-3.40071702,-2.043781519,11.3966198,33.96959305,-121.9761734,-35.90050507
2798,-2.330710411,0.515892804,11.36718845,32.26359558,-161.4504089,-39.16389465
2799,-0.489329547,1.083054185,11.51817036,10.96045303,-195.0415802,-27.53660965
2800,1.368105412,-0.556357801,11.41425896,-6.473761559,-226.2949982,-17.86812782
2801,3.731428862,-3.984779119,11.03000259,-8.026640892,-233.1790771,-22.31854248
2802,5.754902363,-5.127537727,10.03656101,12.94568443,-228.7359772,-24.67183113
2803,6.647039413,-3.496574402,10.34374619,30.67020988,-222.463913,-28.84925079
2804,6.105213165,-3.672516108,11.79759121,15.47348499,-207.8903046,-32.8697052
2805,5.864518642,-4.554878235,12.37773705,9.968509674,-199.1267548,-33.94998169
2806,6.348024368,-3.692452192,13.17726707,11.07886028,-197.4140625,-34.28150558
2807,7.534355164,-2.745746136,13.35873604,1.103616714,-185.8049622,-32.38847733
2808,8.619505882,-2.552901506,11.92046356,9.882267952,-174.519989,-26.21842957
2809,9.008401871,-2.561680794,10.25204182,14.42115402,-144.1412506,-17.44734955
2810,8.576749802,-3.1210711,8.432126045,15.81440639,-119.2471237,-9.089889526
2811,9.08981514,-2.469766378,7.464344978,18.86970329,-86.55698395,-6.151381016
2812,9.225645065,-1.714283586,7.610882759,34.688694,-50.80888748,-8.119029045
2813,8.754584312,-1.291014075,7.274440765,39.26837158,-41.88502502,-0.863631845
2814,8.221921921,-1.073849201,6.433092117,27.72023582,-49.98284149,5.148679733
2815,7.661289215,-0.681947827,6.930156708,-13.3529253,-19.60263824,-1.520692945
2816,6.193030357,0.208622962,7.66417408,-130.1947632,35.37728119,-2.775839329
2817,3.893171549,0.971995533,3.036747932,-160.2889404,29.24469185,8.216320038
2818,1.69230783,1.963158488,-1.248257518,-66.17842865,15.64931297,-0.015444709
2819,0.338538736,-0.990758717,2.66890049,-38.14224625,6.042649746,-1.279732347
2820,1.785999417,-1.39949882,3.21955204,-42.48153687,7.896453381,4.845256329
2821,3.113650322,-1.492632627,4.400783062,-33.09580994,15.50904083,21.37835693
2822,0.609833896,-1.417675972,5.92130518,-49.55182266,11.16297913,24.29525566
2823,0.533898473,-1.412964821,6.284768105,-64.51083374,5.472242355,9.484736443
2824,1.980191946,-2.930873394,8.238538742,-79.71081543,-10.05918217,0.902797639
2825,2.896252394,-3.331180334,8.039686203,-64.02635193,-21.1436348,5.589504242
2826,2.786540508,-5.127523899,8.021191597,-28.29297829,-35.35273361,-0.641064823
2827,3.173969507,-5.666907787,7.745959282,11.87255096,-36.52236557,-10.5784235
2828,4.188179493,-4.185560703,8.757436752,27.11079788,-35.11735916,-18.99971962
2829,5.457803249,-2.731574059,9.727872849,19.04010582,-32.15883636,-18.5959053
2830,5.637378693,-2.814702511,9.643464088,18.26234055,-29.32090187,-10.53360367
2831,5.514615536,-2.756338835,9.323020935,25.89100266,-28.74288368,-4.285463333
2832,6.764674187,-2.662773371,7.964265347,38.2797699,-34.30476379,0.932048261
2833,6.379561901,-3.877048731,7.890371799,55.39205551,-25.29531097,3.058516502
2834,6.10986042,-3.885187149,8.16271019,48.70566177,-9.756921768,0.878875434
2835,7.06550169,-2.837946415,8.524782181,42.61595535,4.458040714,1.342107654
2836,7.786070824,-2.5366745,9.255343437,35.11626434,15.22632408,3.990767241
2837,7.780997276,-2.338753462,9.401545525,33.62081909,14.76636219,7.133728981
2838,8.057924271,-2.706398964,9.866973877,51.53122711,12.47742176,6.618547916
2839,8.794110298,-2.811006546,10.12064552,60.27275085,16.11741447,1.924558163
2840,8.799653053,-2.254363298,9.506044388,54.36856079,27.90102005,-2.806343794
2841,9.201981544,-1.739328027,8.889152527,44.59280396,63.13658142,-4.01269865
2842,8.356165886,-2.309658289,9.219986916,32.11174393,94.6683197,1.626149774
2843,7.168466568,-2.670655966,9.942925453,9.225877762,126.2154465,8.55490303
2844,7.815490723,-2.220814228,8.41337204,-6.072961807,151.0517883,20.22987366
2845,8.416208267,-2.657537222,7.049762249,-11.04705334,165.9296722,25.39275551
2846,8.526655197,-2.414313316,6.325329781,-24.71993065,184.5801849,24.12896538
2847,7.759077072,-0.97468257,5.059200287,-11.0944891,190.6158447,25.04051208
2848,6.859666824,-1.818754196,3.120466948,37.97989273,175.8148346,26.51733589
2849,5.643608093,-2.249311924,3.178690434,47.73501968,180.0365143,25.47022057
2850,3.399294376,-0.20871377,4.812945366,34.26990128,188.373703,25.28508949
2851,0.911174357,1.034173369,6.880554676,23.19801712,192.1911774,24.51258469
2852,-1.48788619,0.482159495,8.044958115,15.05026054,192.5586243,28.99990082
2853,-2.459665775,-1.035664916,10.27861691,7.995983124,184.0202789,32.42205811
2854,-1.781854868,-2.014484406,11.73489857,-17.82084656,171.3971558,41.91658401
2855,-1.83087635,-2.124652147,12.80653858,-82.43119812,162.9302826,44.91376114
2856,-2.19150877,-2.131812811,11.25867462,-105.3155975,155.337677,40.05765915
2857,-3.955001116,-2.772406816,10.17124367,-63.28272247,131.831543,45.61749649
2858,-3.966603518,-4.343056679,11.05401897,-25.5273838,87.78773499,37.42027283
2859,-3.626590252,-3.494069338,9.619974136,-1.729090691,55.3055191,24.69282722
2860,-3.088923454,-1.694769025,7.732486725,18.10074615,31.35460854,16.18541718
2861,-2.769623041,-0.922821939,7.469596386,10.35028458,10.46098232,13.13894653
2862,-2.743340731,-1.421809077,8.701898575,-1.286943316,-11.72975063,11.79498005
2863,-2.936522961,-1.857188225,8.843170166,-3.55724144,-33.94922256,6.819589615
2864,-2.911032677,-2.646255493,9.942123413,-5.323030949,-52.65963364,-4.53969717
2865,-2.3588624,-2.426276922,10.37037086,-5.97938633,-70.13970184,-13.24439335
2866,-1.615930676,-2.434750795,11.46309948,-3.832057714,-88.35435486,-17.67134094
2867,-1.533372998,-2.687195301,11.28492832,7.923397541,-111.7131271,-23.79988861
2868,-1.214027643,-3.593827724,11.53647041,25.04200745,-136.1196899,-31.56772041
2869,-0.274751753,-3.469428539,11.67333508,42.51514053,-157.734024,-31.57676697
2870,0.491993487,-2.243057966,12.30042458,51.80786514,-179.0422363,-29.80476379
2871,1.399549961,-1.954289794,12.41221142,51.78194427,-202.92659,-29.60273361
2872,3.239423513,0.088534012,11.30715656,61.00621796,-207.9074554,-22.56157303
2873,4.606574059,0.832039475,11.87305164,56.12195206,-213.9217987,-15.86645126
2874,5.040062904,-2.081907988,11.91856575,21.90067291,-228.0488892,-10.39869881
2875,5.757604122,-3.777076721,11.00739765,7.338521004,-215.053772,-17.21861076
2876,7.093559742,-2.913646936,10.76148891,4.389559746,-208.9576263,-29.85379028
2877,7.521270752,-1.021981835,12.08704567,0.077753484,-210.9828949,-35.97334671
2878,7.57980442,-0.63503772,11.65215397,-18.08374596,-218.9377747,-30.69461823
2879,7.988694668,-1.852360249,9.990579605,-14.12070465,-224.1578979,-23.27461243
2880,9.672923088,-3.305942297,9.182496071,-4.057441235,-213.6115112,-20.82729912
2881,11.15240288,-4.611514568,10.55850601,9.756223679,-152.5672455,-25.17184639
2882,10.97922611,-4.008332253,9.803616524,29.29078102,-115.5379944,-22.63423538
2883,10.20704365,-1.696992993,8.622115135,14.31151485,-71.61875916,-16.32038879
2884,8.415315628,-0.852457106,7.627693653,5.057480812,-53.85020447,-12.53502846
2885,7.841536045,-0.31101802,6.284625053,3.565116644,-33.55438614,-5.884452343
2886,7.874983311,-0.915375769,5.197145939,-9.924119949,-18.88180733,-9.109711647
2887,8.965826035,-1.269623518,4.579485416,-15.56716728,5.205181122,-12.3430481
2888,9.534691811,-0.570912659,3.289638042,-19.93162727,28.86483383,-11.05920506
2889,8.899079323,0.864214778,3.501737595,-56.8900032,63.1746254,-3.123919487
2890,6.71719408,0.018233761,3.680893421,-105.7943878,92.17682648,15.6740427
2891,2.933469057,1.833516836,-0.709777296,-108.9311523,94.69500732,11.83342457
2892,2.265591383,0.844818592,-3.255208492,-46.04306412,86.04994965,15.34342384
2893,0.536103308,-2.591732979,2.035340548,-46.18888092,81.39587402,19.95674515
2894,2.096457243,-2.249992609,2.331580877,-46.02234268,81.95830536,5.89665699
2895,3.722021103,-1.591396809,3.278190374,-35.0519104,86.75534058,17.52234268
2896,2.361757278,-1.363714695,5.164943218,-38.58902359,92.74288177,24.86479187
2897,0.191105843,-1.041879535,6.918763638,-44.06819916,85.98696136,23.70396614
2898,-1.406478047,-1.54689014,7.56615591,-29.78717613,56.88641357,16.4597683
2899,-1.130537391,-1.558399081,6.804236889,-2.588542461,23.05327415,18.58846855
2900,-0.364705861,-2.772212744,7.003687859,-1.089706779,7.103072166,19.27906036
2901,0.728739321,-4.670889378,7.554807186,5.544747829,-2.596180916,9.025067329
2902,1.225505352,-4.792129993,8.239720345,27.03727341,-14.43787575,-6.083203316
2903,2.296068668,-2.119261742,9.009570122,32.35165024,-24.18222809,-12.59357452
2904,2.808061361,-0.976766288,9.25795269,18.634655,-41.74797821,-6.949304104
2905,3.160285711,-1.532588124,9.607355118,3.79510808,-56.06266022,-4.970597267
2906,5.163165092,-2.045759439,9.841379166,-5.78336525,-62.1957016,-10.15539932
2907,7.134017944,-3.36563611,10.16027451,-15.42143536,-61.19272995,-17.97262764
2908,7.912649155,-4.572555065,10.15255928,-8.84940052,-52.90388489,-15.65808773
2909,7.667773724,-4.101903915,10.5409441,2.329855442,-42.97399521,-6.536596775
2910,7.99649334,-3.301522493,10.86397839,11.17870331,-37.73423004,1.323575497
2911,7.236320496,-3.484379768,10.61163616,29.35001945,-37.42141342,-3.679369926
2912,8.143378258,-3.400411844,10.34531593,39.38430023,-16.48286247,-13.20405293
2913,8.451087952,-2.685030222,9.731191635,52.63114166,0.409929544,-21.70552444
2914,7.467766762,-3.008398533,11.11821938,41.58939743,13.30803871,-38.8282814
2915,9.113071442,-2.335257292,9.784466743,5.426477909,29.96316338,-31.81542778
2916,9.337924957,-2.459591866,9.121683121,7.661499977,43.54213715,-12.45754528
2917,8.661452293,-2.88105607,9.08655262,9.011427879,63.87855148,-0.796220839
2918,7.729008675,-3.329166174,9.426132202,-1.822318435,100.096077,2.694071054
2919,6.994856834,-2.24813199,9.096565247,12.40423393,117.425293,7.535851955
2920,6.783046246,-1.445915103,9.110478401,47.78675079,122.5534973,13.9143877
2921,8.081197739,-2.850179195,9.896184921,27.08427048,137.8863678,16.48835754
2922,9.496212959,-2.889792919,6.747569084,-16.56641579,152.789032,20.78115845
2923,8.79446125,-1.753466487,5.115709782,3.139840126,145.6722412,25.55847931
2924,7.16018343,-1.35956943,4.784331322,16.63071632,141.8878632,24.495718
2925,6.864299774,-1.781405568,4.713833332,11.56749249,145.8998413,21.90336037
2926,5.931690216,-1.542036414,5.388149738,15.99847031,158.0114136,20.08651161
2927,3.090279341,-0.848076403,6.366361618,25.59460258,163.5227966,22.13301086
2928,0.383972198,-0.530272603,6.983624935,26.59972382,170.0678864,29.57199669
2929,-1.22417891,-1.418500662,8.94476223,-0.036489438,175.1383362,40.0429306
2930,-1.291288972,-1.427772284,9.086423874,-47.75868225,181.8023682,49.72397232
2931,-2.509625912,-1.453103423,9.021612167,-67.1506958,194.7284088,47.68749619
2932,-1.969287276,-2.273136616,11.42783356,-97.40504456,178.1016541,44.76370621
2933,-2.256037235,-3.115433693,11.32259083,-103.1310272,152.5747833,44.12279129
2934,-2.566102028,-3.578231573,10.93217278,-57.30489349,119.0905685,39.13612366
2935,-3.455048561,-3.035516977,9.820550919,-40.17630005,83.22822571,26.25602913
2936,-3.004719973,-1.797582626,7.952113152,-13.86200809,51.51448059,16.30718231
2937,-2.908005476,-0.81165415,8.902715683,-11.55426788,27.71792793,7.852060795
2938,-2.779213428,-1.399608374,10.26342964,-31.36914063,10.3868084,-3.713029623
2939,-2.498714209,-2.45640707,10.6274538,-25.37804794,-9.964219093,-14.69761658
2940,-3.14161253,-3.364306211,10.75501823,-11.57111359,-32.7685051,-19.80281258
2941,-2.457673788,-3.311433792,10.74035263,5.095356464,-66.45347595,-28.287117
2942,-2.378172636,-2.840414524,10.45855141,17.52032089,-103.8688431,-36.80651093
2943,-1.564054966,-3.442092419,10.50384998,26.36996078,-118.619812,-42.40249252
2944,-1.218828559,-5.218864441,11.54617405,34.90988159,-130.7605286,-39.70840836
2945,-0.798646629,-4.613393307,11.89256001,40.40568542,-156.9565277,-45.11453247
2946,0.926571608,-2.688632011,12.54970741,50.93802261,-191.4161377,-50.26986313
2947,2.2561481,-2.485112667,13.73239613,50.68169022,-197.6889496,-40.27153397
2948,2.803709507,-2.27636075,12.526968,47.3074646,-219.9200745,-20.39108849
2949,3.653301001,-2.572743177,14.11973286,35.58087921,-251.1986847,-28.02772331
2950,3.567014694,-0.412874788,10.71027756,21.28334045,-287.8082275,-29.80547714
2951,4.042084217,-0.087779462,6.29456234,28.53023529,-294.4125061,-24.48604584
2952,6.694371223,-1.236813426,6.943309307,26.0210247,-286.1568604,-12.34256649
2953,8.556753159,-2.431056976,8.551801682,6.932915688,-287.5039368,-9.028460503
2954,11.15749454,-4.34276247,8.893309593,-18.34420967,-264.4657898,-14.76538181
2955,12.26331139,-4.085907936,8.908831596,-21.76055527,-243.2412567,-23.238451
2956,11.83815765,-3.142405033,8.571522713,-1.867918015,-209.4546204,-19.48656654
2957,11.16848564,-2.465514183,8.66857338,6.191287518,-175.3098602,-18.11937332
2958,11.82362747,-2.893977404,8.118159294,23.97903824,-147.1091156,-22.42930031
2959,11.48011875,-1.314207077,6.570785999,36.80305862,-104.3456192,-21.5161972
2960,10.2763176,0.234191164,5.152492523,35.37392426,-65.23112488,-13.05587387
2961,9.878834724,-0.639154971,6.213212013,26.79480934,-16.25190353,-5.195029259
2962,9.194168091,-0.989879727,6.845436096,14.44047165,5.376142025,0.551525056
2963,8.598359108,-0.328231275,5.008282185,-2.778450012,31.71170044,1.004860282
2964,9.05412674,-0.231557712,3.803946018,-23.83446121,52.20819855,6.891620636
2965,9.229403496,-0.273298889,0.608326554,-30.86089897,58.2585907,16.00580978
2966,9.241680145,-0.22427547,-1.504701853,-23.66045952,79.07102203,26.67622185
2967,8.789504051,-1.307558417,1.863016367,-91.73201752,138.0254517,47.2039566
2968,2.911967754,1.303902864,0.691680729,-134.6863251,164.7011414,48.10816574
2969,-0.481476963,0.233228132,-1.374959111,-68.97503662,141.4547882,48.23128128
2970,1.502592564,-2.163357496,3.243653297,-59.73395157,135.9941406,42.60293961
2971,3.704830647,-2.837160587,4.781690121,-61.70793152,139.7764893,32.75817871
2972,1.963013291,-3.148071051,4.656177998,-52.44439697,129.7904816,23.27048874
2973,-0.017694816,-3.530258179,5.434933186,-33.06394196,112.6108856,24.65491295
2974,-1.833432317,-2.534595251,5.982804298,16.74371719,75.79141235,22.66242218
2975,-1.387267351,-1.211484432,4.223400116,58.25030518,37.04409409,15.05520344
2976,-0.742438853,-1.821370721,5.630639076,49.92057419,16.54413605,11.08131313
2977,0.353595138,-2.851005316,6.333263874,38.85908127,2.665918112,4.556798458
2978,0.863428235,-2.400158167,7.86190033,31.97986221,-10.02829742,-8.312867165
2979,1.659775615,-1.901379466,8.469571114,28.08336258,-24.69604301,-17.4582634
2980,2.336957216,-1.808405638,9.272762299,18.93257713,-46.10515976,-14.14431
2981,3.294408083,-1.930609345,10.10191631,7.989772797,-62.21460342,-11.04718399
2982,5.276094437,-3.514236212,10.50109673,4.680695057,-69.96508789,-10.47253895
2983,7.447853565,-5.720057487,9.912840843,19.77182388,-68.88567352,-8.663461685
2984,8.670097351,-5.478838444,10.03544998,40.58174515,-57.56947327,-5.853218555
2985,8.349423409,-3.528823614,9.954641342,53.55857849,-52.20412064,4.260712147
2986,6.331551075,-1.990916252,10.46570969,58.42338181,-49.33887482,3.272019148
2987,7.912517071,-1.570814371,11.03061295,52.16955948,-50.78671265,4.773329258
2988,9.990694046,-2.366502047,10.78290749,45.81617355,-38.65216446,2.96904254
2989,9.543759346,-3.320112467,10.60007954,31.4106369,-9.925190926,-7.593593597
2990,8.376079559,-3.044530392,9.880108833,39.0963974,20.57606316,-16.4423027
2991,9.067657471,-1.776186943,9.789943695,26.06643486,37.27219772,-14.19921684
2992,9.859632492,-1.143564343,8.757316589,10.13453197,59.9140358,-2.052525759
2993,9.980210304,-2.153928995,9.926722527,-1.486117005,102.8740921,2.076620817
2994,10.02313232,-2.336231709,10.37567139,-21.64731407,159.0927277,2.347521544
2995,9.161525726,-0.885937154,8.715901375,-6.02857399,182.8950958,12.85772324
2996,7.393605232,-1.680401325,7.623045921,30.15677834,169.2350311,23.23946381
2997,6.51158905,-2.280123472,6.934702873,24.77325249,169.7798157,22.39602852
2998,7.616384983,-0.934111416,5.680008888,-4.367380142,172.6815033,20.79033661
2999,6.658854008,-0.153618515,4.102039337,4.160353184,170.135437,26.72075272
3000,5.29791069,-1.797606587,4.992186546,4.24127388,177.558609,27.97351646
3001,3.883608818,-0.720359683,6.190023422,3.01248455,194.9051819,28.23698807
3002,1.48758626,-0.137678534,7.253343582,3.737049341,202.0727539,33.60155869
3003,0.193322122,-3.290965557,8.339557648,-7.300088406,200.5979614,39.56349564
3004,-0.001816779,-3.169498444,9.508600235,-29.58538055,202.5077515,49.65013123
3005,0.112566501,-1.870642781,8.076905251,-36.9300499,187.9181976,58.49691772
3006,-1.839304328,-2.544955492,6.840255737,-30.48475075,196.9277802,56.37878036
3007,-3.025100946,-2.391859293,8.301199913,-33.83123779,184.9073029,48.01673508
3008,-4.186366081,-1.684114575,8.550778389,-44.74039841,176.2145081,41.85852814
3009,-2.86537528,-1.893774271,9.277756691,-36.03594589,148.7433472,36.88621902
3010,-3.104656696,-3.566019058,11.03082275,-48.74163818,110.0108032,33.66365433
3011,-5.980335236,-3.054511786,10.31406879,-40.92661667,61.27576065,24.13993263
3012,-6.736269951,-2.026623487,10.07328129,-26.27939415,6.295697689,11.03331852
3013,-5.439133167,-2.476839781,10.05809879,-16.34196091,-44.4733429,5.571779251
3014,-4.622428894,-2.577020884,10.85434628,-15.25251961,-69.72397614,-4.953213692
3015,-3.75672245,-2.667766571,9.74567318,14.37096024,-110.3957138,-20.25884819
3016,-2.718048811,-2.617342234,10.37292957,29.61273003,-143.3096313,-33.22109604
3017,-1.467162609,-1.795576572,10.48326778,36.88863373,-179.8326874,-35.25068665
3018,-0.203106791,-1.245366216,10.49420166,24.56737709,-203.5416565,-25.82669449
3019,0.013555825,-2.443486691,10.29593086,1.557146788,-213.4312134,-24.29152107
3020,2.191287756,-4.564282894,10.15062141,-3.841896057,-229.8521576,-42.81678772
3021,5.360277176,-3.339172125,11.16699982,12.13886452,-246.9326172,-62.06301498
3022,6.014379025,-0.554727316,11.8603487,6.780578613,-258.3519897,-62.81706619
3023,5.85544157,-1.295089126,11.93114471,-5.40327692,-262.27948,-43.5008049
3024,6.648903847,-4.656430721,11.02195168,1.179682374,-266.5175171,-36.38965988
3025,7.946600914,-6.451443672,10.87531567,25.90076065,-255.0509644,-38.21496582
3026,8.428466797,-5.522583961,10.93521023,33.26010895,-227.9228973,-35.60082245
3027,9.349826813,-3.988418341,10.19960403,25.74906349,-208.2313232,-30.48505783
3028,10.67225647,-2.453715801,9.376673698,29.38588905,-187.1762543,-20.05524826
3029,10.6722641,-2.278003931,10.48106289,27.35685349,-131.4531097,-17.11767578
3030,9.830780983,-3.130262375,11.65126133,25.88306618,-82.26502991,-17.76122856
3031,8.685034752,-2.815719843,9.337221146,48.94451523,-72.63302612,-8.036458969
3032,8.544138908,-2.109681129,6.605805874,57.60813904,-61.21419907,-8.427505493
3033,8.529214859,-0.202854708,4.369788647,59.6422081,-43.21082306,-11.28931236
3034,8.138425827,1.02665484,2.196944237,37.84340286,-7.403261662,-5.732037067
3035,7.157514095,-0.231016204,3.945896149,10.13974953,34.5124321,1.124370575
3036,6.123354435,-1.306766748,4.096558094,-46.24101257,68.80382538,6.27346468
3037,3.652258635,-0.339050651,3.622386456,-43.8523407,81.10781097,10.85285759
3038,1.548439384,1.604699969,3.265410662,-32.5504303,57.58374023,11.93784046
3039,2.643607616,-0.419062644,5.934995174,-54.44898987,64.15232086,9.704672813
3040,1.599036098,-1.089971185,4.447844505,-39.49397659,54.68151093,7.161664486
3041,1.090568423,-1.316817999,5.656434059,-40.92008209,42.42351913,3.785443783
3042,1.183757067,-1.335824013,5.9958148,-39.9370575,26.66441345,-4.001901627
3043,0.579817832,-1.120785236,7.519468307,-31.6021862,12.32967567,3.040054083
3044,1.327868104,-1.576010704,8.616476059,-15.13981152,-4.504587173,8.329585075
3045,2.703566551,-2.265711546,8.615239143,-23.28299332,-18.23679924,-7.283430576
3046,4.426962376,-1.416435957,8.929898262,-18.95191383,-18.4683075,-10.32102489
3047,3.450559616,-1.463362336,7.750824928,-3.443689108,-42.20365906,-9.250395775
3048,4.087765694,-2.162537098,8.021799088,5.89287138,-47.66989136,-6.348800659
3049,4.929523468,-2.294268608,8.956417084,1.427118301,-44.2014122,-13.92999458
3050,4.4848032,-2.517021656,9.497525215,-0.290091753,-43.38639069,-19.10161781
3051,5.447676182,-2.231903076,9.224112511,12.01344967,-44.29935074,-16.64730644
3052,6.439123631,-1.488405466,8.901457787,13.29831886,-49.58683014,-14.89752197
3053,7.657240868,-1.905033708,8.332902908,9.105905533,-40.8552742,-10.15938187
3054,8.151721954,-1.768390417,8.682951927,1.75129354,-30.0020504,-6.88813591
3055,8.100359917,-1.437357187,8.908304214,0.913740814,-20.70006371,-2.723223209
3056,8.120113373,-1.750414729,8.853444099,8.681117058,-9.165344238,-5.873687267
3057,9.192698479,-2.949760199,8.886191368,20.39167023,7.261313438,-15.28600407
3058,10.03887844,-3.1018188,9.354512215,21.51429176,20.70578575,-17.95737267
3059,9.573402405,-1.701903939,9.445257187,26.70327377,34.37771225,-10.09283066
3060,8.445774078,0.152314276,9.001927376,37.4093399,61.36925888,-0.779126883
3061,8.694014549,0.14768067,8.779866219,29.02398109,88.77976227,6.463147163
3062,9.147709846,-2.42505312,8.026154518,-3.269377947,116.8571777,16.24558067
3063,8.721161842,-3.496556997,7.756325245,-36.37786865,159.2322845,29.16518784
3064,7.91210556,-3.85671711,8.767680168,-52.58364487,200.6407166,38.69631577
3065,6.924926758,-3.449787378,7.619160175,-54.1573143,212.4493408,45.19075394
3066,7.615960121,-2.378651142,5.962645531,-43.75408936,214.7265472,38.90668488
3067,6.397854328,-0.414744914,4.188950539,-23.55712891,214.1691895,37.80910492
3068,5.896211147,-0.888207436,3.947728395,1.38753891,209.5401459,34.46495438
3069,4.79467535,-2.122694016,5.23870945,-9.342565536,213.7320709,35.54334259
3070,3.774844646,-1.569402456,5.606353283,17.12606621,196.410965,38.09640884
3071,1.557109952,-1.790143728,6.766000748,36.13505936,176.2262421,36.1534729
3072,-1.033380508,-1.878186703,7.751351833,14.56376457,165.9580536,40.8456192
3073,-2.846654892,-1.256218791,8.342941284,-8.038024902,163.959198,43.57822418
3074,-3.020219803,-2.151735306,10.03990746,-36.48499298,157.2718811,43.65108109
3075,-3.734295607,-2.033638239,9.784461021,-76.34616089,144.2415466,49.95213318
3076,-4.329333782,-2.733604431,10.18521023,-85.09205627,128.0383606,46.14753342
3077,-4.61811161,-4.076359749,12.60434723,-87.10216522,103.8181076,38.20597076
3078,-4.484835148,-6.035672665,11.17182541,-69.72412872,52.77452469,24.85803223
3079,-3.217877626,-5.359469414,7.248577595,-0.141747341,20.49343872,12.05817509
3080,-1.86467278,-2.737869501,7.004254341,17.3602562,-5.462548256,1.414962292
3081,-1.92425549,-2.015728712,7.87560463,24.60886574,-31.91325951,-4.065872669
3082,-1.977021694,-2.436478615,8.746099472,10.38105869,-49.27468109,-11.45488834
3083,-1.70128119,-4.183990479,10.18320942,1.927313566,-61.95894241,-18.60462189
3084,-1.733410239,-3.844064236,11.1542635,6.463346481,-77.53053284,-20.93105507
3085,-1.416339278,-2.885819912,11.42432308,10.96549606,-97.91379547,-27.90173912
3086,-1.475453734,-2.47405529,10.91732597,1.676797509,-121.4344101,-34.27034378
3087,-0.852600455,-3.260082245,10.41930771,-1.037250042,-145.5310364,-39.29901505
3088,0.251053452,-3.91157198,10.63292599,7.576482296,-155.3241272,-42.55226898
3089,1.081388235,-4.446229458,11.1153326,20.44570732,-157.9132843,-48.41654968
3090,1.935543537,-3.635076523,11.43779278,28.64437675,-171.1307068,-51.71353912
3091,2.583585262,-3.066833258,12.35543633,41.87644577,-193.1088104,-46.66259766
3092,3.708150387,-2.484324694,13.12683582,57.38348007,-233.1748962,-42.30808258
3093,6.037129402,-2.018280745,12.02949905,45.24308014,-245.405777,-41.21409225
3094,7.10949564,-2.021447897,10.35935497,28.18228912,-229.9441071,-37.49554825
3095,6.745231628,-3.29894805,10.40572357,33.80051041,-214.8347931,-37.35810089
3096,7.818792343,-2.919788122,10.12007999,21.51178741,-209.4303131,-43.34744644
3097,8.950312614,-3.185310364,10.6257,2.892941236,-192.8496552,-48.50203323
3098,9.258544922,-3.157972336,11.0643549,-9.105619431,-179.3263702,-49.02149582
3099,9.59685421,-2.600667238,10.96561527,-9.333163261,-181.3173828,-45.08292389
3100,11.05997944,-0.788479686,8.180376053,10.27910709,-171.2855072,-27.95965195
3101,12.04635715,-2.325291157,7.078217506,-4.980614662,-94.74687195,-13.35308743
3102,9.951338768,-3.044601202,7.344510078,-6.059852123,-42.54631805,-10.54731846
3103,8.237609863,-2.073493719,6.748602867,3.529972792,-29.07219887,-7.71646595
3104,8.643753052,-0.474846303,5.027274609,14.10541534,-21.33257294,-5.448346138
3105,9.390727997,-0.657844484,3.208446264,30.94233894,-8.454106331,-8.489630699
3106,10.02276707,-0.709946394,1.488301516,26.22364235,19.98874092,-11.66965675
3107,8.591051102,-0.33792305,2.665048599,12.8348465,37.13275146,-18.23258781
3108,6.800282478,0.252171695,5.873845577,-45.14350128,49.85416412,-13.42673302
3109,5.703015327,-0.564420521,6.447137833,-126.5136185,68.00547028,19.82848167
3110,0.508874714,1.670237899,-4.661819935,-79.08403015,74.55445099,16.30461693
3111,-0.237677813,-2.95174551,1.087252498,-9.198472977,83.71089935,13.46037579
3112,1.792316079,-4.101647377,3.41341114,-17.21565628,81.4407959,8.459845543
3113,4.130903721,-2.127258539,4.632547379,-8.117854118,88.51569366,10.18896294
3114,1.627489328,-0.784920394,6.065420151,-7.273121834,85.53130341,9.239659309
3115,1.360494852,0.378849953,6.06529808,-4.056427479,73.2888031,15.13753796
3116,0.848691583,0.392994046,7.378121853,7.139861584,49.80060959,18.51029778
3117,0.237690777,-0.957706809,7.37157011,5.944357395,25.99665642,24.42707825
3118,0.517414391,-3.272934198,7.653043747,5.862905025,13.31100368,18.54621124
3119,1.297103047,-4.411168575,7.931694031,27.95509529,2.712258577,7.350949287
3120,2.211213112,-3.58249259,8.079403877,58.0338707,-10.2058773,-2.148752689
3121,2.284983397,-0.605696201,9.163076401,62.95045853,-24.14335823,-8.038356781
3122,2.064189911,0.773883939,9.545336723,41.8888855,-46.09095383,-4.956253529
3123,2.885136604,-1.561228991,9.398571014,13.61986732,-64.01203918,-0.867720127
3124,5.120072365,-3.519737005,9.282926559,-2.156175613,-67.2272644,-0.327694118
3125,6.810413361,-2.19946003,9.556977272,-17.90610695,-59.72350311,-0.121290579
3126,8.077636719,-2.418578386,10.01708603,-33.76377487,-48.89751816,5.431938648
3127,8.150177002,-2.892207146,10.56820965,-42.42326736,-41.48862457,11.31041336
3128,9.055110931,-3.165961504,10.37332153,-37.15869141,-34.29724884,10.42843151
3129,9.73128891,-3.076375008,9.514349937,-8.138245583,-31.1532402,19.56773186
3130,6.965217113,-2.957113743,10.41331577,27.38398552,-16.12505531,4.289111137
3131,6.720155716,-2.229890108,10.20713902,23.77791214,5.243346214,0.424204737
3132,7.867214203,-3.229330301,10.32926559,-4.09296751,15.40011692,-14.52396202
3133,8.866601944,-3.660668612,9.038982391,17.45947838,33.76410294,-21.13600731
3134,9.485799789,-3.253441334,8.30051899,47.62440872,52.12524414,-11.23053741
3135,9.478770256,-3.690875053,9.013587952,34.90747833,80.66339111,2.746723175
3136,7.843351841,-2.288374186,9.127118111,24.47108841,116.3868637,5.745747089
3137,9.037428856,-2.079367876,9.491495132,25.36787987,152.4499207,8.660558701
3138,7.846120834,-2.422873974,9.082825661,31.03932381,177.1266785,19.0845623
3139,6.49245739,-2.222611904,7.902788639,35.38080597,178.7305145,19.59396362
3140,8.334267616,-1.030009747,5.675919056,3.21903491,176.5893707,18.14587784
3141,9.166363716,-0.699254811,4.039916039,0.918480098,178.6982269,21.0496521
3142,7.32924366,-0.06505768,3.64306283,16.3183918,199.427597,19.32338142
3143,5.492413998,-0.745670795,4.594436646,16.89866066,200.2335968,20.14726448
3144,3.306122065,-0.471256971,5.509665012,3.484196424,204.4854736,17.47922325
3145,1.055141449,0.310271263,6.298530579,3.541921616,208.4124908,23.70858574
3146,-0.61389935,-1.014785409,8.516145706,-9.298855782,213.2492523,33.26244354
3147,-2.720671415,-2.147912979,10.9974823,-52.98031235,187.5391693,33.41786957
3148,-5.646522999,-3.085322142,9.42469883,-78.05886841,188.4300537,31.22680855
3149,-3.613438606,-2.857167959,10.36329174,-90.00202179,150.1157227,32.48862457
3150,-2.155455828,-1.821197629,11.59150887,-78.17142487,110.1082993,31.7120285
3151,-3.356120825,-3.053621769,10.80181885,-58.44063568,65.77118683,23.06054878
3152,-3.704879045,-3.195091724,9.364982605,-9.165819168,38.29587936,21.57179451
3153,-3.966986418,-3.012392998,8.449997902,21.08841896,15.43612671,11.36671829
3154,-3.459571362,-2.348560095,8.822948456,34.1530304,-7.837525845,3.591492414
3155,-3.511491537,-2.036286116,10.41606236,28.49677277,-23.1339817,0.546551943
3156,-2.857535601,-1.932196021,11.77680779,14.82592964,-43.90009689,-11.36039448
3157,-2.552003622,-2.190726995,11.76585388,12.72556591,-65.58428192,-19.40232658
3158,-2.283107281,-2.677081347,11.86646175,9.317388535,-92.74783325,-23.11078072
3159,-2.053171396,-2.021063566,10.69062519,13.12158203,-119.9596786,-25.10483742
3160,-0.866563559,-1.989753008,11.64180756,7.504086494,-137.6293488,-29.33394432
3161,-0.268006027,-3.602711916,12.16837597,0.861399889,-148.4464874,-33.33988571
3162,0.476276696,-3.091215372,12.15981674,14.70414543,-167.4710388,-36.5331955
3163,1.671511769,-1.656268001,12.75742722,23.71617889,-183.3368225,-38.82039642
3164,2.401468039,-1.431254387,11.55421448,23.478405,-203.8405762,-32.26306152
3165,3.46288085,-3.245514154,10.66381264,40.12565613,-211.8624268,-23.72621918
3166,6.096780777,-6.319094181,10.66532135,83.60202789,-226.5563507,-21.54318428
3167,7.486364841,-5.630849361,11.26745129,109.0763702,-213.0914459,-30.97346687
3168,5.728926659,1.650166273,9.708913803,54.70625687,-191.7805481,-33.10207748
3169,6.531281471,2.344547987,8.710179329,62.25517273,-200.4411316,-27.85301399
3170,7.901848793,-1.16914618,10.17017174,43.99368668,-194.3639984,-20.20592308
3171,9.199267387,-2.052906275,10.58128262,29.05030441,-203.7892151,-20.02810478
3172,10.29312801,-1.027849078,11.09289551,7.867034912,-191.0467529,-27.79816055
3173,10.33687496,0.39452818,9.790928841,-12.37074852,-174.0607605,-28.51210403
3174,9.6954422,0.001538562,10.20183945,-14.97648907,-157.5230713,-21.27870369
3175,10.30505753,-1.965898037,9.217719078,-23.47253418,-138.6046448,-17.756464
3176,10.55637074,-3.000631571,7.069725037,-26.62796021,-81.93000793,-21.88549805
3177,9.855049133,-2.825095415,6.996094704,-19.08518219,-32.79444885,-24.1213665
3178,9.041308403,-2.352698565,5.667921066,13.78329468,-12.39736938,-17.6529274
3179,8.681957245,-0.641110301,5.677631378,27.73835182,-11.950037,-13.85995865
3180,9.498119354,-0.233574107,3.030727386,6.074701309,-4.671412945,-9.438105583
3181,9.880085945,0.82193315,0.792242348,10.90811729,41.99800491,-4.926301956
3182,9.573363304,1.003091335,3.299858809,-21.5140152,84.69545746,0.801487625
3183,6.308709621,0.090988934,2.50198102,-62.65067673,143.8175354,7.779221058
3184,1.43578124,-1.687184334,3.312815428,-80.8493576,85.21468353,10.05720997
3185,0.44430846,-0.041252378,-0.778376937,-12.99829292,61.40557861,5.817961216
3186,2.266172647,0.735915601,-0.132049993,-1.83309114,80.07419586,1.597532272
3187,1.139175534,0.536381245,2.76478219,3.396473646,82.11126709,11.13584518
3188,1.369326591,1.108480334,5.875801563,-8.841736794,83.18731689,8.658082008
3189,3.038494349,2.133134127,5.805711269,-9.445912361,72.05279541,11.1466217
3190,1.127934575,1.308771372,6.76210165,-14.61807346,54.9852829,14.64328384
3191,-0.665006459,-0.051982328,6.762356281,-26.71619415,31.99131203,16.18730736
3192,-0.208614975,-0.798486054,5.909298897,-19.31175804,13.82892323,18.72584343
3193,0.094978787,-1.913730621,6.220698357,-13.46545029,5.54654789,17.07860756
3194,1.387192488,-3.735701084,7.373886108,-15.51179695,0.620961368,5.613253117
3195,2.402904034,-2.951733351,8.427042007,-18.86213493,-11.03622341,-2.681142092
3196,2.840967178,-1.870469213,9.139022827,-12.17084503,-25.09072113,-4.594559669
3197,2.833153963,-1.503506184,9.505304337,0.297883779,-39.98121262,-4.752616882
3198,3.775278807,-1.355516672,10.06487465,6.187872887,-49.98504257,-5.257566929
3199,5.336974621,-1.529161096,10.26822472,1.22858417,-55.01958466,-5.444550991
3200,6.809459686,-1.501842856,10.30623245,-5.639801979,-50.78116989,-2.895465851
3201,8.290543556,-1.127719522,10.31184864,-13.34454155,-45.6483078,6.410813808
3202,8.684158325,-0.906414807,10.04295254,-19.98339462,-33.10392761,16.32518196
3203,8.061894417,-1.023416996,10.48441029,-24.19293213,-11.83279514,11.28558445
3204,8.338960648,-1.410883904,10.2126112,-26.33115196,-4.697255135,11.97131634
3205,8.859546661,-3.06035018,10.75120354,-9.022579193,3.662484169,9.355091095
3206,8.48888588,-3.798292637,11.02142334,14.01445675,16.20339966,8.911027908
3207,8.384236336,-2.764258623,9.888782501,19.98513603,29.7904129,4.788194656
3208,8.23220253,-1.592322588,9.323091507,26.75630188,57.08699036,-0.62150085
3209,8.043097496,-1.61483252,9.883728981,15.07910633,73.99872589,0.00635848
3210,7.204593658,-1.358046651,9.049890518,5.207555294,87.74806976,3.830464363
3211,7.78749752,-0.77843219,9.072669029,2.167526245,119.334198,7.244948864
3212,8.130503654,-1.448201537,9.484965324,-10.84535313,157.8319855,12.79891109
3213,8.142208099,-3.231162548,9.665765762,-26.17970467,179.7875366,22.33287048
3214,8.307329178,-3.082359791,9.006569862,-20.45722198,174.7598114,29.44043159
3215,7.521020412,-1.936534524,7.905661583,16.67437363,155.6193695,35.06521606
3216,7.264695168,-1.112414837,6.107048035,32.33082199,132.9596558,33.78666306
3217,7.372269154,-1.723006368,4.977151394,30.83782578,137.2861176,29.10273552
3218,6.437906742,-1.267068624,5.471621513,15.32594776,158.258728,26.01778221
3219,3.687548399,-0.698182404,6.584880352,29.61182785,169.6620636,29.39248657
3220,0.933672905,-0.766465545,7.355854034,34.09922028,165.0171356,31.37849998
3221,-0.739309669,-1.376262069,8.030799866,15.86275101,171.625824,31.89551163
3222,-1.775584698,-0.816073656,8.911829948,-17.173769,170.9687805,33.69255829
3223,-1.810528755,-1.596076012,10.00854492,-46.68716049,160.0795135,36.31910324
3224,-1.44347012,-1.542682171,9.729222298,-77.00161743,158.9075317,35.29309845
3225,-1.795559645,-1.718711615,11.07189465,-75.26713562,170.4084625,30.94611549
3226,-3.55986762,-2.100873709,12.45284748,-86.89528656,158.0976563,21.28240204
3227,-4.315974236,-1.825387239,11.84294701,-79.64373016,106.7850723,9.689009666
3228,-3.238877535,-1.300429463,9.229010582,-35.35278702,28.38125801,13.17898941
3229,-3.414665222,-0.982238472,7.995315552,6.053912163,-9.166172028,11.12848473
3230,-3.850797653,-1.317469001,8.942661285,-8.444588661,-44.9295845,7.316745281
3231,-3.777001143,-1.560618162,8.876103401,-6.150722027,-76.21547699,2.177386522
3232,-2.542144299,-2.855974197,9.802500725,-15.38681793,-105.7510529,-8.80019474
3233,-0.635251522,-3.247417212,10.19424152,-16.82931328,-130.1803741,-25.04219437
3234,0.065136343,-3.000706196,9.796355247,3.157129049,-164.3687592,-32.47746277
3235,0.278747171,-5.255856037,10.89387703,24.9081459,-183.7206726,-29.23716164
3236,1.007621765,-3.865256786,10.50858116,37.42877197,-199.976532,-36.53482056
3237,3.101013184,-3.048157215,11.07071304,37.68034744,-210.7833099,-47.11917114
3238,5.02383709,-1.858371139,12.20902061,27.13988495,-223.3065338,-49.28009796
3239,5.846766949,-1.753150821,12.95719051,26.18935585,-230.3343658,-47.39149094
3240,6.874804497,-2.929783583,12.42420673,33.2384491,-240.6393433,-46.83930588
3241,8.21120739,-3.693036556,11.43388271,47.65298462,-237.0271606,-48.10597229
3242,9.118602753,-3.221721172,11.11325073,35.30471802,-219.2928009,-42.84542465
3243,8.741201401,-3.153948545,11.30245686,11.26347637,-189.4797668,-38.11727142
3244,9.016635895,-3.401308298,11.3468523,3.772804976,-162.9168091,-33.28427124
3245,9.589222908,-2.815012217,11.70305061,7.706012249,-132.4347382,-20.03206825
3246,10.1465826,-2.696136951,11.0607605,-6.696631432,-98.16226196,-6.246844292
3247,10.23667526,-2.233541012,9.141072273,-16.91794968,-48.97167587,-1.208879709
3248,9.223374367,-2.291165352,7.695674419,-23.1742363,-6.440031528,-0.081333295
3249,8.584752083,-1.135230541,4.82932806,-6.983503819,18.73417282,3.565900803
3250,7.615636826,0.167545065,3.793055058,-18.58509636,44.36465073,4.219938278
3251,5.178219318,1.364691496,1.687190652,-37.2022934,56.59143066,1.593487978
3252,4.17657423,0.439706177,2.647346735,-25.00134087,33.97330093,4.974753857
3253,3.925365925,-0.601030052,3.069009542,-31.31061554,26.16517639,7.415094376
3254,3.119365454,-1.031588912,4.222242355,-15.98898125,27.29792786,13.75816345
3255,1.34932065,-2.340361118,3.813055277,4.837046623,6.47819519,16.29619217
3256,-0.666452944,-3.240544796,5.048326969,37.08453369,-1.036717772,8.544728279
3257,0.373982936,-1.601001501,6.522976398,35.64093018,-6.48579216,0.102432065
3258,1.072490931,-1.162417531,7.064426899,28.45687675,-18.61420441,-17.16378593
3259,1.384032726,-1.243435383,6.781979084,29.65437698,-29.51408768,-9.7265625
3260,3.619096041,0.44186312,7.691193581,18.08444595,-11.82410908,-6.54324913
3261,4.847451687,-0.939537108,8.329051971,26.17240143,-17.36963654,7.96433115
3262,0.358707815,-2.342297077,7.660861969,47.68259048,-44.99444199,-0.038931884
3263,-0.556807578,-2.594136,7.894176483,50.62714005,-63.53390121,-21.24296951
3264,4.179386139,-0.473648787,8.409548759,32.93132019,-59.9475174,-28.32514381
3265,6.394310951,1.722489953,8.643264771,20.70869637,-58.66818237,-16.02559853
3266,5.674489498,1.411034465,8.830760956,3.535749674,-64.20423126,-0.208490387
3267,6.141647339,0.109446362,9.750967026,-15.06497955,-57.77271271,8.142296791
3268,7.931798458,-1.065463781,9.990073204,-23.29475784,-48.70545578,12.8600893
3269,8.09667778,-1.906986713,9.751769066,-29.14945793,-45.13722229,9.065486908
3270,8.290177345,-2.034647703,10.20358086,-9.215111732,-35.54909134,8.572697639
3271,8.200433731,-1.578808427,9.764576912,2.543457985,-28.21487427,11.21449852
3272,8.426800728,-1.322164536,9.830379486,1.308598995,-13.08759117,12.56923485
3273,9.013969421,-0.722554743,8.192777634,-2.532956839,8.371650696,11.84855175
3274,10.20540333,-1.511944175,8.656997681,-15.08724976,34.61621857,5.598074913
3275,9.796224594,-2.894901037,8.269323349,-19.42399406,58.3634758,-0.960168779
3276,8.646129608,-2.862097263,7.881388664,13.46319485,66.39809418,1.744259357
3277,8.133696556,-0.561862826,7.759101391,41.5530777,70.58004761,14.98561764
3278,7.955786705,1.381301999,7.26967144,43.13990402,87.56064606,25.27233124
3279,8.152180672,-2.533231258,9.608017921,-27.43579483,146.3431854,20.00046921
3280,7.501358032,-4.037919998,8.381799698,-65.42974091,168.5829315,14.86542034
3281,8.195268631,-1.655955315,4.071902752,21.4150238,129.0867767,21.46404839
3282,8.749725342,-1.182678223,2.336534023,43.22987747,120.7822418,25.20186043
3283,7.045045853,-0.61175704,2.719434023,8.548002243,156.4980927,22.93122864
3284,5.170128822,0.55801028,3.896368504,10.78550148,179.439682,15.31124687
3285,4.21068716,1.058799028,5.384940147,23.35832977,187.774704,15.53254032
3286,1.682278633,0.477622479,7.408033371,30.39522362,206.2971497,21.59812737
3287,0.606002927,-0.840324283,8.601216316,-1.954119444,212.5514069,32.82922745
3288,0.112884104,-1.991633654,10.08704185,-31.26273918,195.9857941,45.11861038
3289,-0.940125585,-2.229151726,10.81738663,-59.67477036,201.7749939,55.77451324
3290,-1.157313585,-2.836423635,10.52117157,-74.98326874,193.8388824,55.38170624
3291,-2.090606213,-4.169982433,10.07121754,-69.48085785,175.8739624,46.52030182
3292,-2.897821426,-4.108539581,10.91182423,-38.27454376,148.540451,37.45993042
3293,-3.103204727,-4.214588165,10.94307232,-18.8164711,126.8796997,28.40097618
3294,-3.839491844,-1.665796518,10.55305481,-7.191717148,87.86399078,17.1985569
3295,-2.601903677,-0.951378286,10.4150486,2.591807127,46.41540527,5.93937397
3296,-1.65907681,-1.588775754,10.09263992,-20.21268463,10.1955204,3.938850164
3297,-2.092282057,-1.570643306,9.745441437,-23.45010567,-3.285840273,0.295699179
3298,-2.30498457,-2.396948338,10.83754349,-25.68132973,-11.99065208,-2.983894348
3299,-2.829606056,-2.772114277,10.9306736,-11.38080311,-31.58758354,-11.07274628
