PacketCounter,Acc_X,Acc_Y,Acc_Z,Gyr_X,Gyr_Y,Gyr_Z
599,10.10385704,1.829756856,-0.832482517,19.95318031,-35.28026199,-17.66123199
600,9.77781868,2.23501873,0.11398188,15.33178711,-38.44728088,-7.98026228
601,9.517033577,1.825720429,0.721758604,11.63238811,-42.26441574,-2.400271893
602,9.457598686,1.488703609,0.686503589,18.08322144,-46.93094254,-4.515713215
603,9.448953629,1.175550818,1.018713713,25.11359596,-52.07278824,-6.934375763
604,9.749732018,0.903264105,1.163057327,20.43289948,-60.59799957,-7.464673519
605,10.27758312,0.009739865,1.597181678,14.53515816,-68.4537735,-6.8309865
606,11.01673889,-0.639890671,1.473108172,16.45572472,-80.23295593,-9.512091637
607,11.52708244,0.372280568,1.463692069,19.35848808,-86.09428406,-14.37133121
608,11.29159641,1.372448206,1.485009313,26.20855141,-92.12271118,-13.09462833
609,10.40388107,1.645341158,1.357931137,25.5632515,-98.7987442,-12.10822773
610,10.47109318,2.532977819,0.726001859,17.46864319,-105.2526703,-12.43205261
611,12.01690483,1.973069787,0.504537046,9.552749634,-113.2517166,-6.70871973
612,13.26983547,1.210762262,0.337547123,7.069405556,-115.3423615,-1.276123047
613,13.34052277,0.682649791,0.210605651,15.24544048,-117.4006653,-0.802344739
614,12.40240955,0.830853641,-0.039646849,29.33723068,-115.0007553,-8.149175644
615,11.49964809,1.061164856,-0.308758169,40.64633179,-114.7553864,-12.6922636
616,10.97259331,1.465082049,-0.790752053,45.14686203,-117.7876282,-13.25374794
617,11.09307861,2.389054775,-1.219748735,45.81010818,-124.2909088,-2.937343359
618,12.40178204,2.868061304,-1.970247746,49.36288834,-132.014328,27.5070076
619,13.17902374,1.519881487,-1.462037563,52.76815033,-159.8375244,53.88964462
620,13.33765125,0.861925483,-2.304647207,53.67419052,-210.2012482,56.59236526
621,11.58200645,0.23491247,-2.802914858,75.10591125,-270.4615784,50.095047
622,10.63427258,0.121785559,-2.524803877,102.7304077,-367.8211365,92.61334991
623,9.684041023,-0.560529768,-1.594814539,149.9749756,-606.9438477,140.3938751
624,-12.61530972,0.392073005,-8.487190247,128.9608917,-385.5518188,-2.931019306
625,16.53572464,-2.052633524,-6.889059544,83.97423553,-383.1253967,65.35691071
626,5.222303867,-4.358613968,-9.985055923,10.39654541,-547.213562,158.3393402
627,3.227811098,-4.319304466,-13.24121571,21.5134449,-515.7350464,90.36820984
628,-14.05616856,-15.74585247,-23.52085686,128.0079498,-585.8536377,190.2054596
629,-6.959918499,-16.75485229,-19.63319778,-15.83211231,-306.1005554,174.6619415
630,5.264640808,7.73864603,-18.54356194,-125.966423,-363.6478577,-51.48170471
631,6.363895416,5.252514362,-6.704230309,-224.1457367,-66.02197266,-131.4320984
632,5.09770298,0.705481529,-4.558004856,-176.9393463,186.8051605,-54.17069244
633,4.888099194,-0.733504951,1.3560642,-74.01077271,198.7687378,-34.36567307
634,2.521892548,2.531263113,-4.149793148,-24.930233,90.83843231,-41.73809433
635,-2.396863461,2.252576351,-3.733599186,81.47225952,-47.56261826,-23.03658104
636,-1.252363205,0.699689686,-3.274781704,85.95061493,-50.92039108,11.69365788
637,-2.067527533,0.012077324,-2.519298077,73.78948975,12.06087589,23.48414421
638,-3.856699467,1.955566406,-1.915419459,35.86061096,-3.211826801,22.67787552
639,-6.267876148,1.874961257,-2.263124704,-7.944596291,-26.38939476,9.032363892
640,-4.91989851,1.400728822,-1.950342536,-25.70821381,-40.9702034,15.36767673
641,-3.754676104,-1.206182718,-2.607940435,-12.99364853,-56.50291061,10.6124506
642,-5.811757565,-2.309167147,-5.10477972,-1.44640851,-116.7764282,23.19781494
643,-3.119453669,-1.98447454,-4.867064476,-13.27444935,-56.41885376,14.49469948
644,-3.915079355,-1.651596665,-4.477763653,-20.03195381,-105.94384,7.607470989
645,-6.772655487,-0.745128274,-4.557175636,3.950012445,-14.43181896,-0.076505184
646,-8.504990578,-0.353325158,-5.671658039,10.86991787,26.85276985,9.589970589
647,-7.392345428,0.155608818,-5.870408058,-0.99835819,2.034437418,15.23127556
648,-6.063270569,-0.711373568,-9.442323685,-11.4421711,-61.75341415,21.74299812
649,-5.644877911,-2.32785368,-9.350670815,-1.950367332,-99.64490509,11.68806458
650,-5.380038261,-2.868405581,-8.475937843,-28.08901405,-90.73200226,-6.941147804
651,-7.499339104,-3.653965473,-8.134263039,-46.10817719,-36.12919617,-14.44590187
652,-6.122520924,-1.081466913,-10.40365696,-50.95657349,100.9239044,-35.23836136
653,-0.633685946,-1.935404301,-11.98145485,-58.76249313,249.8258057,-59.18777847
654,2.115813732,-2.599408627,-10.03984165,-123.0790787,404.0151367,-114.98423
655,-4.224916458,1.156724453,-0.538390517,-136.6176758,345.0401917,-79.75351715
656,-13.00442505,0.277363002,-7.845025539,-29.83119392,-118.4215775,-1.67034328
657,-12.4384594,-0.283563435,-9.799596786,47.41210938,-113.7878418,16.6680603
658,-6.894355297,0.43576479,-7.782636642,48.01796341,-98.25415039,2.209329605
659,-3.878508806,0.851852894,-6.604292393,32.49976349,-55.69791794,-5.317890167
660,-3.823549747,0.514411271,-6.205676079,31.09116173,-28.47113991,-11.28213692
661,-2.175434828,-1.908632517,-4.005687714,49.31953812,-11.79053211,-9.609718323
662,-2.14945817,-2.348449469,-0.113684036,73.90807343,-12.82875919,-1.198954344
663,-1.542441249,0.296097755,-0.291510046,59.09564972,-18.46538734,18.10408592
664,-3.036448479,1.7083354,-4.478205681,19.30406761,-9.757946014,35.53424072
665,-5.779429913,0.643478274,-10.85331917,-13.31146145,49.68026352,14.10444546
666,-4.392718792,0.542652011,-14.58907318,-18.48265648,120.9046631,-9.787286758
667,-3.343570232,-0.132912755,-9.13958168,-35.89665604,154.3385162,-9.560111046
668,-2.225490093,-1.001593471,-2.371209145,-96.29735565,206.5866089,-13.51466656
669,1.786472321,-1.711785793,-9.956249237,-116.5723801,168.6035614,-28.10805702
670,4.769996643,-0.163721964,-23.93377495,-4.78696537,168.373291,-46.63259506
671,2.200606346,0.488518894,-23.8569355,162.0991669,190.6078033,-18.62265778
672,1.422246575,-2.062384367,-12.70556641,206.5045929,68.83438873,72.05155945
673,1.85793221,-4.499491692,-13.86773586,30.27265549,-49.42454147,54.87611389
674,-3.151391506,-3.320295334,-15.4633131,-34.57411575,22.55202866,-15.40545273
675,-4.455116749,-1.216200233,-14.29395771,-28.18606377,223.3999023,-52.23826218
676,-4.442908764,-0.683654368,-9.957700729,-48.68579102,275.6071167,-56.35580444
677,-4.378646374,-0.921981096,-10.65852833,-23.58582115,142.1029205,-40.97389221
678,-1.420277357,-0.619402885,-12.68161869,19.21549606,7.426527977,-47.08703613
679,2.577484369,-0.093711488,-11.40728951,56.48495865,-22.36408234,-33.85697937
680,3.690652132,-1.909069896,-8.956293106,54.21493912,-38.80749893,1.971741438
681,1.794258475,-1.634625077,-9.604860306,-3.453745842,-10.03452206,2.529312849
682,-1.212718487,-0.399316132,-10.78061008,-31.38153267,4.43540287,-15.83193302
683,-2.354311466,-0.247333288,-9.509571075,-47.95264816,-13.18748188,-19.07978058
684,-1.705492854,-1.036582947,-9.965931892,-48.91370773,-76.37827301,2.444963217
685,0.304057121,-0.943465889,-10.118083,-46.27884293,-118.2000046,12.08665276
686,0.852675557,-0.483119756,-10.17411232,-53.70413971,-144.5806274,9.688581467
687,0.488291085,-1.200377345,-10.00135422,-56.99129105,-135.7155151,6.354133129
688,-0.664343238,-1.176306129,-9.961380959,-52.59703827,-129.1257935,8.408579826
689,-1.038324237,-1.382371187,-10.03425789,-6.754175663,-105.8472824,15.26875114
690,-1.555929542,-1.784829736,-8.675204277,31.39378929,-73.01359558,18.33656693
691,-1.621112347,-1.733951926,-5.114287853,34.77639389,-86.47454071,-1.332874298
692,-1.544303894,-1.333874583,-2.566528797,43.70427704,-117.7960968,-13.47269249
693,-2.818305254,-1.147250295,-1.763189793,75.83999634,-114.9316635,-10.15315723
694,-2.637468815,-1.059440732,-3.108883858,85.40233612,-87.9564743,-0.632321358
695,-1.806408167,-0.369080782,-4.257596016,79.33210754,-61.73442078,7.052497387
696,-2.584748268,0.235370845,-6.091852665,38.92556381,-48.44128418,13.11666012
697,-3.624706745,0.834549427,-6.51515913,8.559972763,-10.59419346,14.49077034
698,-3.137813807,0.616332889,-6.114608288,-1.915703535,12.03445148,10.45576
699,-2.06064558,0.091788679,-6.928931236,-15.46251583,34.46092224,1.426525831
700,-1.45750773,-0.78354454,-8.849005699,-15.21100712,81.03549194,-6.730116844
701,-0.70499301,-1.308923125,-9.780939102,-14.41542816,131.2049103,-12.31181526
702,0.613922,-1.168212175,-10.64078999,-14.60391998,173.5622101,-12.76013279
703,3.340600729,-1.901234984,-10.06772614,-17.10286331,189.9504852,-10.22376537
704,7.40608263,-2.348373175,-10.66093159,-25.6410656,189.6670685,-13.07804394
705,8.90312767,-2.19483304,-11.72170925,-27.57941055,158.6534882,-21.53504753
706,6.685024261,-3.051182508,-10.62593937,-72.17854309,113.0636444,-34.95613098
707,1.44334054,-1.841073155,-15.35878944,-68.4493866,97.11104584,-60.39536667
708,-1.60002625,0.413518608,-23.0527401,62.36502457,44.67552185,-46.66957092
709,-1.82187891,1.987079263,-20.63755417,155.2552948,-6.948040962,27.08314896
710,-2.215271473,-0.480226159,-9.768484116,63.32190704,-45.41425323,60.93272781
711,-1.090634823,-0.530725181,-11.63113785,-20.43236542,-21.26958847,42.45936203
712,-1.099787474,-0.136576235,-12.87346649,-38.32471466,1.648256302,3.129459143
713,1.653278112,0.280263394,-12.07549763,-24.1907196,-28.88036537,-28.74957085
714,1.871596098,-1.098972201,-11.67054272,-29.62522888,-99.41582489,-9.188382149
715,-1.107930303,-0.924529195,-11.90336609,-19.43916512,-167.7558746,49.71802139
716,-2.73465085,-2.066602945,-10.96639729,1.648739815,-74.3300705,45.21804047
717,-1.983319998,-1.631274819,-8.717402458,-9.054348946,0.716894329,20.98702431
718,-1.24499619,-1.988458514,-8.567494392,-48.24567032,41.15094757,1.128466725
719,-0.216305733,-2.782811403,-8.707531929,-55.69634628,72.6856842,-1.73496592
720,-0.742465675,-1.616284132,-5.601466656,-51.37140274,79.12065125,-9.958123207
721,-1.252829075,-0.355656683,-6.217231274,-20.72706604,-45.26649094,2.228535414
722,0.318421274,0.586450398,-7.953635693,2.052984953,-129.2236633,-3.608170748
723,1.252704859,0.728761256,-9.201633453,12.43865013,-132.1000214,-4.273974895
724,0.304530472,0.329819649,-8.118423462,30.70752716,-102.2956314,18.85788536
725,-1.667584538,0.035117447,-5.286841393,25.12229919,-120.1904678,36.84897995
726,-3.732936621,-0.094440266,-3.675309658,13.20684242,-133.010788,31.34783363
727,-4.102940559,-0.136260927,-4.012074471,41.58584595,-143.8920593,25.02043533
728,-2.038436174,0.00731466,-4.732532978,77.50166321,-139.3650665,25.55307007
729,-0.416398138,-1.249941111,-5.722515106,70.421875,-68.27218628,29.87524033
730,-1.286184788,-1.131008387,-6.42754221,19.17986679,5.745471954,28.59762192
731,-2.445397854,-0.574616194,-6.270967484,-7.986445427,24.14502144,24.47870445
732,-2.974134445,-1.135479331,-7.051510334,-9.086691856,50.34391403,8.617878914
733,-2.489011049,-1.52834332,-6.893542767,15.3061533,59.5684166,6.838790417
734,-2.260610819,-1.26961267,-6.285616875,32.99223709,60.8781395,9.920422554
735,-0.940584004,-0.568877041,-8.080542564,32.92798996,91.80448914,1.736298203
736,0.903804302,0.185351029,-10.59948063,34.42430878,134.1554565,-8.18776989
737,2.759588003,-0.352040946,-12.27732468,35.45090485,154.6654358,-6.554385662
738,5.493368149,-1.683332205,-11.95872116,28.29808998,159.7419739,-3.877648354
739,8.274790764,-2.38203311,-12.03078175,10.06150055,139.039444,-14.33174515
740,7.311888695,-3.575657845,-11.32897377,-25.60158157,111.3147202,-23.72041702
741,3.624568939,-3.823183537,-10.1693716,-68.75511932,142.1814117,-45.43310928
742,1.183058739,-2.644242525,-11.15896034,-81.51890564,136.5484924,-47.57079315
743,-0.54310149,0.388664961,-19.4281292,7.477628231,77.48567963,-16.06679916
744,-1.050486922,1.243014574,-24.26737595,91.39117432,96.15853882,33.60741043
745,-2.683742523,-0.127713531,-11.4709959,-5.583313465,116.9205475,44.26111984
746,-1.482887626,-1.828594804,-6.83898592,-117.4602127,76.04718018,0.489217103
747,1.006861567,-4.047767639,-10.78254128,-111.7626495,41.33358383,-27.63928032
748,3.452605724,-3.918640852,-9.799868584,-53.47128677,35.99583817,-38.54785156
749,3.219555616,-1.382497787,-10.40707493,-2.561305046,20.44857216,-24.89527702
750,1.025231361,1.213080287,-9.871541977,-3.264199257,5.066790104,-12.74811268
751,-0.7263574,2.753757954,-8.995788574,-38.22855759,-16.94718361,-5.037793159
752,-0.465975046,3.40602088,-7.587177277,-66.01522064,-46.90284348,-9.836737633
753,0.602107942,2.68938446,-9.164891243,-67.36617279,-81.35094452,-5.994261742
754,0.463206947,-0.319412619,-10.34440422,-44.9912796,-78.10725403,10.70808983
755,0.371765822,-2.375463247,-9.816840172,-22.5839386,-79.97921753,19.89867973
756,1.99303627,-2.392918587,-9.650155067,2.308882952,-73.98043823,10.38701916
757,2.523083448,-1.63759172,-9.045460701,8.102239609,-62.07453537,-12.221838
758,1.914091587,-0.403193057,-9.099338531,12.00901508,-51.67087173,-26.35136414
759,1.432938218,0.641885757,-9.706847191,27.38485909,-58.92531967,-16.41978073
760,1.60120213,0.706109405,-10.25405407,27.13630486,-52.70966721,-2.401002645
761,0.845806718,0.411308676,-8.893025398,17.5758152,-52.9008522,1.732519507
762,-0.028122727,-0.24079968,-7.745112896,7.45315218,-70.00474548,-8.049778938
763,-0.676136434,-0.312600762,-7.669569016,0.634844422,-77.58792877,-21.33655739
764,-1.271547914,-0.483177543,-7.557038784,24.59970284,-71.60216522,-19.65672493
765,-1.489591599,-0.761898279,-6.520778179,48.09953308,-71.30092621,-4.844077587
766,-0.747900546,0.921812057,-6.767432213,72.7501297,-72.32750702,9.273866653
767,0.625237942,1.852163196,-6.998365402,94.8056488,-68.72533417,20.47687912
768,0.967180729,1.384489059,-6.902442932,92.21178436,-53.24032211,23.97922325
769,0.533919871,-0.893860042,-7.978264809,100.1314774,5.550669193,10.79442978
770,-0.726242304,-3.08593297,-8.332496643,89.81381989,90.82203674,-5.723872185
771,-0.330824524,-2.81111002,-8.942818642,58.1235733,139.6886749,-11.97384644
772,0.757338583,-1.886827588,-8.882760048,54.30870438,153.2189484,-11.66549492
773,1.682262659,-1.349519968,-8.929606438,54.73416901,171.2964172,-4.108309746
774,1.939480901,-1.298878908,-9.280492783,43.64544678,189.5751648,0.776520491
775,3.278977871,-0.769184411,-9.81124115,44.14212036,191.9369659,-6.179295063
776,7.071951389,-0.669364274,-9.92688179,38.58419418,167.6105347,-12.7348814
777,10.09006977,-3.009297848,-10.48359394,24.27651215,136.1915894,-10.50652981
778,8.617434502,-4.445796967,-11.32662678,10.20355415,86.00578308,-16.72165871
779,4.910827637,-4.158320427,-12.53231335,11.23605537,75.40927124,-18.24019623
780,2.323787451,-3.691762686,-13.26419544,16.02491951,116.5580139,-32.23705292
781,1.75502944,-2.729553223,-11.49656963,22.55826759,107.3460007,-43.36233902
782,1.710584044,-1.705103755,-10.26970577,-17.31595039,89.03872681,-46.78179169
783,0.698083639,-0.067455433,-10.86295128,-52.83901215,103.8000565,-53.23241043
784,1.402834654,1.093338847,-9.667311668,-56.13761902,120.1938019,-51.49600601
785,2.661548138,1.102916002,-7.182846546,-68.37708282,92.94017029,-36.53142166
786,3.406275511,0.890458703,-6.657757282,-76.1651535,11.18785572,-7.302346706
787,4.586728573,-0.009803064,-8.033162117,-66.81626129,-53.10653687,11.31275272
788,4.324353218,-1.443684578,-7.791649818,-62.13404083,-51.26199722,5.24468565
789,4.083704948,-2.170622349,-7.742929935,-28.0393734,-28.94071388,-0.485991031
790,3.36473918,-3.373375893,-6.148982048,7.127795696,-12.84249878,1.075586796
791,2.76023531,-3.293479204,-3.436975718,35.22737885,-5.397286415,3.247634649
792,2.954850435,-0.886065841,-3.837326765,88.24810791,-25.04452515,14.21758747
793,3.468665838,-1.322818637,-7.707518101,75.85721588,-51.81892014,36.10277939
794,2.894991398,-3.504629612,-6.703670025,8.721582413,-29.66700172,41.46178436
795,3.763419151,-4.791968822,-9.488941193,-7.68909502,-13.58608437,31.84802437
796,4.07465744,-5.347247124,-9.064371109,14.44159317,-15.96003819,13.69809437
797,3.211749554,-5.21192503,-8.317035675,44.72981262,-15.84855747,0.809873521
798,3.322313547,-5.422576427,-7.271326542,80.64624023,-18.16506577,-3.303375006
799,3.527373075,-4.859146118,-7.036446095,106.7134247,-24.45434761,1.058418989
800,3.328618765,-3.881342411,-7.933427334,134.9185638,-24.44976997,15.95864677
801,3.434660673,-3.942204237,-8.444059372,158.4208832,-17.05508232,30.32571983
802,4.329540253,-4.478641987,-7.71167326,163.5437164,-15.70242596,35.02196503
803,5.461126328,-4.862848282,-7.16549778,165.1196442,-13.89521217,28.57487106
804,6.091893673,-4.781676292,-7.837649822,176.4391785,-24.33602142,19.32405281
805,6.246040344,-3.855712652,-8.933617592,197.0381012,-26.4540596,19.54208183
806,4.931875229,-3.232910156,-8.693371773,201.2702026,-20.5287056,36.03518295
807,3.817410469,-3.645901442,-7.206943989,155.078064,-4.291221142,45.68113327
808,2.414148092,-4.202171803,-5.008702278,94.03957367,-3.485708952,40.0308342
809,1.186029315,-4.193058968,-5.731419086,35.02768326,-25.52589798,35.53953171
810,1.51774776,-4.235519886,-6.148095131,-0.812469423,-42.3244133,36.89601517
811,2.355237484,-4.235614777,-5.695547581,-38.94243622,-62.09795761,37.46102142
812,2.72048974,-3.973541737,-5.669082642,-103.715332,-79.70613861,23.70611191
813,3.290792227,-3.608120441,-5.661270618,-155.9613953,-81.48213959,6.676148415
814,3.781671524,-1.218198299,-4.232785702,-158.1230621,-70.57050323,-13.42509365
815,2.150887012,-3.569628716,-5.489737988,-131.0225067,-58.70415878,-10.47024918
816,0.857435346,-6.674335003,-5.980148315,-93.64876556,-41.93639374,3.621635675
817,3.223111629,-5.170948505,-7.267619133,-47.01715088,-14.65880013,4.192470074
818,5.165461063,-2.528623819,-9.078497887,-41.56371307,-4.859885693,1.374200225
819,5.340652466,-0.366676629,-9.548798561,-64.76554871,-15.19115353,3.898601532
820,3.757188797,0.375690639,-9.375026703,-70.34535217,-16.40823555,7.34720993
821,1.749006629,-0.730510533,-10.27931595,-59.51893234,-17.06813049,12.48845863
822,2.502854586,-2.988599539,-11.24733829,-64.57801819,-7.335384369,8.906816483
823,2.805254221,-4.476709843,-10.5429306,-69.02895355,13.24026108,5.973453045
824,1.59304285,-5.194116592,-9.239933968,-72.97853088,25.88464737,0.82997787
825,0.440731704,-5.229727745,-9.281288147,-69.17514038,29.69166946,-8.137396812
826,0.328843176,-4.588022709,-10.32070923,-57.0701828,30.62451935,-15.19118786
827,0.748884559,-3.444002628,-10.52012157,-46.01924515,31.29084587,-22.93362808
828,1.515062213,-2.284112215,-10.34818268,-40.67138672,23.51792526,-32.03411102
829,2.62949419,-1.697062492,-9.263912201,-47.65200043,13.70415592,-30.27643967
830,3.279713869,-1.462548614,-8.140490532,-67.87588501,10.14230633,-20.88182068
831,2.542028189,-1.562087774,-8.090328217,-80.87236023,13.99892998,-11.77095985
832,2.238365889,-1.024234414,-9.457204819,-55.00984573,23.35596275,-16.06288719
833,1.521791935,-0.923646033,-9.774341583,-30.55758095,21.62861824,-38.52664948
834,3.362485886,-0.060687475,-8.927283287,-13.92461681,12.52075577,-39.62273026
835,6.053236485,-0.960731566,-8.471524239,-32.66757202,0.694959283,-19.44782066
836,6.505193233,-1.978610754,-9.539933205,-67.12408447,-6.685175896,-4.790394306
837,4.947671413,-1.90683198,-11.04881382,-86.40281677,-3.995391846,-1.27933681
838,2.467045546,-0.8015607,-10.56078625,-80.39710236,16.29866219,-2.134433746
839,-0.065836012,1.047750354,-8.742320061,-87.62508392,27.5617485,-8.121313095
840,0.252183408,2.475342989,-7.592809677,-126.6436081,33.81892776,-5.094124317
841,0.68514663,3.278141975,-6.616980076,-187.6629486,36.09316635,1.236400962
842,0.438824087,5.364993572,-7.755853653,-240.600296,8.769883156,-7.470894337
843,0.953976274,5.496397018,-11.23755455,-193.1475983,-42.9511528,-19.31390953
844,1.351067543,4.021990776,-11.1258297,-179.6738281,-62.50413513,-29.05386925
845,2.118818283,2.751778364,-9.708827019,-189.5848083,-70.34364319,-25.62336349
846,2.532753944,0.708496332,-6.98638916,-220.0294952,-58.32299423,-20.0003109
847,2.733953714,-0.013179615,-6.896688938,-219.9713287,-48.04903793,-15.74665833
848,3.247089148,-0.319279611,-8.052096367,-152.899292,-35.03702164,-14.03308105
849,3.698633671,1.434862733,-8.463270187,-92.27335358,-43.02581787,-24.46142006
850,4.810899734,2.594833612,-7.079145432,-69.68749237,-69.40937805,-28.85988235
851,4.695687294,2.967239857,-6.805904865,-86.56116486,-93.07782745,-29.97011566
852,3.118801832,3.362214327,-8.707834244,-72.89561462,-113.207962,-27.88110542
853,1.499246001,3.263566494,-8.636750221,-68.28762054,-106.2759857,-16.06225777
854,-0.098650903,1.780109048,-6.111575127,-51.20194244,-88.22619629,-14.14224625
855,-0.911755085,0.926642001,-4.378307819,-20.07423592,-63.95552063,-36.25945282
856,-0.242197514,1.23317039,-8.941922188,29.01035881,-69.60899353,-32.73771286
857,-1.358537793,0.6835711,-10.77722645,143.4826355,-78.9964447,-2.461689949
858,-1.081626534,2.857690096,-9.646603584,213.8896179,-59.82066727,2.113075733
859,0.869604409,1.840802908,-7.340655804,214.3531952,-25.20124817,0.712233305
860,0.637075424,-0.072527453,-7.217802048,197.8022919,0.759540439,-0.817785263
861,1.513167024,1.750037909,-9.403969765,222.9475555,12.61449337,5.276265621
862,2.429588318,2.867977142,-10.6538868,247.4731598,9.342173576,8.371869087
863,2.370722055,3.013316393,-11.75996971,240.6207123,14.23361874,2.304570913
864,3.111128569,2.983256102,-11.95378208,232.3014832,18.41983223,3.882418394
865,3.641629696,1.210415363,-10.66807365,195.2698212,23.69442368,14.19912243
866,1.62286818,1.172780752,-11.15654182,139.4175415,49.29535294,17.41140747
867,-0.056519903,3.300209522,-11.38574409,92.294487,53.26442719,22.05917168
868,0.372842699,3.940572739,-11.7537508,29.36372185,53.69747543,32.30092239
869,0.678434491,1.673044562,-11.44623852,-9.444210052,41.09813309,36.70940018
870,0.238761857,1.104045868,-11.88871002,-38.9489975,41.08787537,33.35071182
871,0.18865943,0.157472923,-11.9442606,-32.29776382,35.46925354,37.66366577
872,1.22038734,-1.070797324,-10.62888718,-39.74532318,29.9132061,41.11066818
873,3.360782385,-0.663269877,-8.196702003,-86.98677826,52.02500534,26.17182922
874,3.669651031,-0.493057311,-6.558709621,-107.4776688,71.08232117,10.54368591
875,3.032381535,-2.314769506,-8.610355377,-49.3143692,63.1000061,17.06579971
876,2.455648184,-3.338675499,-10.20659542,12.30114365,60.08907318,30.36732101
877,3.041381121,-2.766768932,-9.336369514,40.26423645,63.0069046,25.784235
878,3.990367174,-3.689006329,-9.590960503,58.63851929,70.77825928,1.893186927
879,3.498894215,-6.19095993,-11.01130867,87.80307007,59.82832718,-19.91596413
880,2.636536837,-6.782621861,-11.50597763,116.4500122,59.42055511,-30.76953125
881,1.102980614,-5.245429039,-8.464708328,134.2569122,81.25112152,-28.97338295
882,0.362162828,-3.549542904,-5.905712128,121.1461105,102.9406281,-22.08691216
883,0.075692661,-3.821658134,-6.373702526,90.02728271,53.05006027,0.230913758
884,0.89215064,-3.774055719,-10.94842243,101.9279251,-16.53409004,12.63602638
885,2.025832176,-4.206451416,-11.05177689,155.0594788,-32.09001923,13.0040884
886,2.847880125,-3.006664753,-9.908601761,171.8504639,-20.89022636,8.883328438
887,3.423452377,-3.276593208,-6.228167057,159.9470978,1.748859525,12.50421143
888,3.368031025,-5.332653522,-5.871050835,144.8248901,-1.674953222,19.59970284
889,4.12993288,-5.692379475,-8.076935768,178.678833,7.386602879,19.19284439
890,3.296961308,-5.601555824,-9.308140755,250.3815155,35.43842316,27.85196495
891,2.508623123,-5.930726051,-8.566667557,275.6846008,21.89279366,47.39221573
892,4.114947319,-5.551239967,-7.733071804,256.200531,-9.590150833,47.90141678
893,5.43436718,-3.944741011,-6.23499012,215.2578735,-30.70679283,40.11458206
894,4.441349983,-1.265596032,-7.800600529,168.2343292,-63.67147446,31.68856812
895,2.172575951,-0.067367278,-7.670183659,112.3996124,-54.37184143,27.61316681
896,1.681728125,0.122353435,-4.848472595,39.4020195,-50.09931946,38.98158646
897,0.861901402,-3.833200455,-3.910130978,-38.83125687,-57.41953659,58.31571198
898,0.001924582,-5.991178513,-6.301641464,-76.92966461,-59.53128815,50.42504501
899,0.469264746,-5.141890049,-7.740060329,-70.14704132,-54.92302322,23.16193962
900,1.200286627,-4.686429024,-6.172325611,-117.000885,-54.87779236,-8.453751564
901,3.196846962,-3.394584656,-4.627723217,-153.3673401,-57.01121902,-32.82215881
902,3.044108152,-3.482372284,-5.466346741,-143.9004059,-42.16628265,-35.39109039
903,1.546858072,-5.459425449,-6.563681126,-106.6768417,-22.48281288,-11.30598068
904,1.779644966,-6.56398344,-9.197402,-64.97042847,-8.688537598,10.0776453
905,3.638835192,-5.144370556,-10.84416199,-46.317276,-3.666652679,7.529533386
906,6.259966373,-3.423718929,-9.94690609,-62.21954727,11.33471489,-14.02353191
907,4.849584103,-3.889240265,-7.837498188,-83.92556,5.818671703,-25.25641251
908,1.686161876,-4.926913261,-8.692263603,-66.12133026,6.027449608,-27.26435089
909,0.784134507,-4.408979416,-10.56269169,-30.66594505,-5.301738262,-18.65751839
910,1.466693401,-4.419130802,-9.630586624,-26.89296913,9.991547585,-17.36381531
911,1.290454268,-2.798856974,-7.765190125,-53.34748459,19.16204453,-23.15266418
912,0.365081221,-2.58170414,-8.751974106,-60.71501541,6.338803768,-29.67093658
913,1.15671742,-3.992541075,-10.57117176,-41.34792328,14.00503635,-30.90790367
914,1.744425178,-5.408888817,-10.28584003,-33.27474594,19.35375404,-28.69550323
915,3.82361269,-5.200923443,-9.906959534,-45.29113007,23.12988853,-29.12996101
916,4.572110653,-4.366206646,-8.234566689,-59.61037445,18.66307068,-30.69516754
917,3.032377005,-4.169160366,-7.817474842,-74.3440094,27.8645401,-38.86352158
918,2.525166035,-2.420805931,-9.693543434,-48.04581451,34.49491882,-50.43513489
919,2.119413376,-0.524514079,-10.07853985,-21.65711021,42.77331161,-54.55150604
920,2.526114702,1.199863434,-8.56542778,-37.71378708,47.22031403,-48.97806168
921,3.657449961,-0.328984201,-8.742790222,-93.92185211,40.49264908,-37.3691597
922,5.365672588,-3.069452047,-10.70582199,-147.8388672,27.2892437,-26.05232811
923,4.969107151,-4.882452965,-11.64902306,-154.5139618,32.54777527,-26.64517212
924,3.142142057,-5.174632072,-10.64751148,-135.7423859,36.84754181,-34.86309433
925,0.951050222,-2.223292589,-8.620268822,-112.1013031,29.81950569,-32.91134644
926,-0.682114005,1.107517958,-6.340891361,-134.6067963,22.79852867,-19.37405205
927,-2.010408163,3.896845579,-6.136035919,-213.4680328,18.79384232,-14.13146496
928,-0.250725001,6.690554142,-9.260631561,-249.8282471,-7.68368721,-11.53675079
929,1.906720877,5.904637814,-11.88898087,-205.8371429,-59.4444809,-6.493653297
930,2.644895315,2.51864481,-10.55309486,-218.193985,-75.49802399,-16.12014389
931,3.033706665,0.978316724,-8.829717636,-250.1103363,-68.5271759,-14.67614746
932,2.381034851,0.355573177,-8.019282341,-245.6499481,-56.22129059,-6.984431744
933,1.694942236,0.293611586,-7.880712986,-224.7639465,-47.58145905,-11.70937824
934,2.384193897,1.868331313,-8.972110748,-173.8249817,-57.97940826,-16.33774185
935,4.374609947,3.469168425,-10.20729542,-135.5108795,-72.25239563,-13.37472725
936,5.682157516,3.703131914,-9.65953064,-146.5671082,-79.83570099,-11.42282772
937,5.181804657,1.702679276,-7.751032352,-168.063324,-79.40124512,-23.84337616
938,3.403390408,0.692886233,-5.841449261,-135.3976593,-89.92901611,-41.63470078
939,1.183261752,0.999947071,-6.5207057,-99.90563202,-70.41947174,-41.64892197
940,-0.84533602,1.643878579,-7.424261093,-38.89487076,-68.08045197,-27.67844963
941,-1.424252272,1.834254503,-5.996258259,19.11384201,-79.78578186,-26.57180977
942,-1.099278569,2.879273653,-6.571436405,88.68235779,-87.05406189,-34.48922348
943,0.544362366,2.491243362,-8.99126339,168.48172,-86.71895599,-25.34776497
944,1.559727192,2.964211464,-8.709528923,197.1051941,-64.06356049,-8.457507133
945,1.172488093,1.962020159,-6.777685642,191.4962463,-24.08737564,5.187810421
946,0.083949611,2.073812962,-7.510275364,179.1833496,29.79855919,-2.756157398
947,1.066897273,3.554101467,-9.719880104,199.3965149,61.42280579,-7.157773495
948,1.533360839,3.763246059,-11.0632658,218.5440674,54.37384033,0.053661797
949,2.928179264,3.167464733,-11.39619923,212.7023621,48.0286293,13.26418495
950,5.112632751,3.12728858,-11.10744095,191.4039307,42.55307007,21.16030312
951,5.478192329,2.901590109,-10.34763432,142.3403168,33.11183548,14.25020123
952,3.662938833,3.165389299,-10.90678883,88.3763504,30.78593445,4.745763302
953,1.174984455,3.65327692,-10.80635262,32.61448288,25.28413963,10.87411499
954,-0.661714196,3.856181145,-11.0129776,-24.75517273,29.29105568,24.86664772
955,-1.492646337,2.568248272,-11.27717304,-50.80244064,44.34135818,29.68649292
956,0.436828732,2.450700283,-11.60126877,-54.20992661,55.83230591,26.24760437
957,2.412354231,2.123697758,-10.89557743,-63.32271957,47.93478775,28.40207863
958,3.016139269,1.786970377,-9.877563477,-91.71062469,37.94698715,32.10534286
959,4.788969994,0.426280409,-7.089659214,-106.9541702,42.35446167,12.47455597
960,4.644556522,-1.557465672,-6.099555969,-90.47312927,59.50143433,2.114646673
961,2.41967392,-1.380611539,-8.879479408,2.812005758,59.07884979,20.12723351
962,1.404499292,-0.591163874,-9.012400627,50.95265579,60.79623795,38.57068253
963,2.872272253,-1.399913192,-8.83520031,40.57712173,54.15261078,27.27013969
964,3.485892773,-3.569203854,-10.33243752,65.72477722,36.12319565,2.109881639
965,3.016726971,-4.58548975,-11.32163048,112.551239,44.07714081,-9.529723167
966,2.974364281,-3.971268892,-8.667947769,149.5666351,48.62857437,-18.77635956
967,3.04036808,-2.420732737,-7.369265556,162.4034729,43.54639053,-23.7524929
968,1.925878406,-1.890048504,-8.749211311,159.816864,33.17431641,-13.82528877
969,0.955108762,-3.416020393,-9.983908653,149.9756317,15.43232727,-1.688460112
970,1.36968708,-3.550299406,-10.33846092,168.1726227,14.09098244,5.680271149
971,1.561778069,-1.602179766,-9.542258263,181.6711273,1.309172869,7.809319973
972,3.091659546,-0.589298964,-7.556493759,163.6198273,4.698851109,21.34988022
973,3.022810698,-1.172563553,-7.294608116,144.0790863,6.854831219,42.51695633
974,1.821635246,-2.61706686,-8.327451706,169.637207,-12.38165665,53.6884346
975,1.800186634,-4.462015152,-8.623484612,203.3458252,-15.02532196,54.41355133
976,2.458022118,-5.929540157,-8.598452568,215.309082,-5.908263683,48.11939621
977,3.636871338,-4.656691551,-8.530391693,212.0690765,0.440897673,28.30447769
978,5.157006264,-3.081671953,-7.876811504,203.6032257,-21.16329575,26.38186455
979,5.404100895,-1.483427644,-8.484097481,187.4515686,-41.01460648,33.55426407
980,4.947468281,-1.24286747,-9.153829575,164.6137695,-35.36124039,45.10500717
981,3.811416388,-2.931691885,-7.592416286,139.2015533,-21.84634399,56.86715698
982,1.025359869,-4.699652672,-4.565267563,54.59250641,-20.70817947,52.44005203
983,-1.210318208,-4.936564445,-5.64165926,-30.54768372,-54.80110168,41.57315445
984,0.528265715,-3.575314999,-7.536825657,-53.77059937,-62.1794548,24.73521996
985,2.693472624,-2.693223238,-7.156954765,-98.29354858,-69.15689087,11.11693573
986,2.814785719,-2.463894606,-5.076430321,-151.8906403,-93.0406723,-5.426863194
987,2.26669836,-0.866776228,-5.940450668,-137.9099731,-92.61145782,-18.80923271
988,1.643612027,-1.763594985,-7.8460536,-120.4763031,-47.83735275,-9.997673035
989,1.143806696,-4.250543594,-7.70173645,-98.22229004,-27.15804672,9.956811905
990,2.13324976,-4.519161224,-9.442168236,-77.08829498,-15.98336697,8.754350662
991,4.004195213,-4.116087437,-8.551623344,-76.04668427,-15.44677162,-6.617322445
992,4.660840034,-2.701181412,-9.255412102,-93.8968811,-10.34468174,-7.493565559
993,3.154970407,-2.248189926,-10.48433018,-103.2529373,-7.666926861,-7.279802799
994,1.97253871,-2.005822659,-12.9413805,-83.19194031,-2.808377743,-22.14208031
995,0.286794364,-3.101862431,-12.17960358,-59.20554733,1.321078181,-27.95217514
996,0.006944757,-4.112833023,-9.443778992,-42.89200592,26.76369476,-24.92206192
997,0.812355876,-5.124183655,-7.462207794,-41.39422226,46.35155106,-21.23924446
998,1.382092714,-4.648647308,-8.964494705,-26.34455109,57.66141891,-32.06715775
999,1.324355364,-4.548883438,-11.59082413,-1.408242464,46.63673782,-37.77329254
1000,1.352300763,-3.739604712,-11.70480347,3.587806702,49.15756607,-39.71504593
1001,2.961473703,-2.444812775,-10.46153355,-14.11814785,47.4016037,-39.41764069
1002,3.265816927,-2.184605122,-9.262526512,-42.43109131,47.03408051,-35.29981995
1003,2.522148132,-2.508426189,-9.286940575,-57.61897278,48.78245926,-37.79560089
1004,2.896559238,-2.029970407,-10.23077965,-37.45969009,48.63253784,-43.46273422
1005,3.420371056,-0.538013577,-10.7689476,-31.17227936,62.89359665,-47.79907227
1006,3.874603987,0.588861465,-9.010601997,-57.40781403,80.11911774,-40.88345337
1007,4.404794216,-0.806733191,-7.134579659,-80.17501068,73.88053894,-28.09083939
1008,3.561238527,-1.49915731,-8.303635597,-88.94854736,42.54730988,-22.99227715
1009,3.18981576,-0.618945599,-9.671542168,-84.76385498,31.68274117,-15.96461487
1010,2.129460573,0.360564649,-8.942193031,-93.03320313,38.79111099,-13.75427818
1011,0.950734377,1.501951814,-7.733945847,-131.0444946,43.32755661,-16.90713501
1012,-0.749087512,2.19128561,-7.236085892,-184.792038,36.42763519,-21.59173203
1013,-0.40532884,4.438664913,-9.219491005,-202.9130859,-13.33171177,-13.92884159
1014,0.797464192,5.65743351,-11.59845352,-176.6848907,-59.65971375,-1.510912061
1015,1.822091937,3.812883854,-11.45591831,-183.3514709,-68.61973572,-11.09627151
1016,3.402008772,1.608454823,-11.6507473,-215.2407074,-71.10923767,-30.43453407
1017,4.658641815,-0.444130063,-10.2251749,-241.6981049,-57.64501953,-44.38553238
1018,4.558745861,-1.76909256,-7.561792374,-261.7264709,-38.99093628,-54.56098175
1019,3.733971596,-1.649225712,-6.64216423,-226.109726,-35.76226807,-52.68837738
1020,3.277850389,0.469499528,-6.371845722,-155.1036682,-41.27240372,-53.13611984
1021,3.532268524,3.910085917,-6.650013924,-101.645462,-66.39339447,-50.95201111
1022,3.246015549,6.713207722,-7.571473598,-89.19664001,-105.2475128,-42.66848755
1023,2.526130915,7.35675621,-9.750273705,-77.46451569,-120.4463959,-25.72746658
1024,1.96987462,4.615997314,-9.378631592,-68.4105072,-138.2635193,-8.968067169
1025,0.235578507,2.460838795,-7.356856823,-96.82338715,-142.4957733,-16.12648582
1026,-1.046906829,1.118718863,-5.710473537,-87.47327423,-116.6494827,-34.47774124
1027,0.069620758,-1.070075512,-8.032894135,-15.05269337,-81.56956482,-34.80537033
1028,1.944797993,-0.845320523,-9.474677086,59.42746735,-47.14960861,-15.95675659
1029,0.205751434,1.004077315,-7.89526844,126.152916,-26.58454132,-6.874530792
1030,0.232521608,2.92033577,-7.842247963,182.1912994,-32.87734985,-6.738799095
1031,0.714842379,2.292586088,-8.343614578,188.2534637,-31.7647438,-7.677062035
1032,0.329235733,2.813832998,-9.758810043,172.528717,21.22772789,-12.73723984
1033,2.101850986,4.742146492,-10.28723431,195.8619537,36.89352798,0.374708623
1034,3.120283127,5.395194054,-9.865102768,215.3949127,20.07213402,-1.633591175
1035,3.858162165,4.701299191,-9.77649498,205.9672394,14.11097527,-7.615762711
1036,3.570691586,3.445628643,-9.943682671,168.9534607,1.492596388,9.414507866
1037,1.137930989,1.818215489,-10.40382671,107.8266678,10.82898808,23.70675468
1038,-0.761487305,1.980672598,-11.19912338,74.00941467,43.78759384,23.98085213
1039,0.508165061,2.761830807,-10.6821022,48.73408127,47.75463867,28.3757515
1040,2.070834637,2.508446455,-9.126870155,11.76792908,54.3769722,25.92238617
1041,1.47612834,1.687068105,-9.983006477,-16.41289711,54.59057617,22.12053871
1042,0.034411792,1.705186486,-11.33815479,-5.925669193,42.33900452,29.42648315
1043,0.104480006,1.499103546,-11.60938358,-9.966251373,29.13352394,37.02024841
1044,1.762424231,1.289740801,-10.14145851,-40.1193428,26.91217804,29.5919342
1045,4.396454811,0.751430154,-7.960568428,-76.31609344,32.49913025,12.92326641
1046,4.200484753,0.156490296,-7.331316471,-82.69884491,60.16039658,5.973134041
1047,2.269478321,-0.575428843,-8.310101509,-30.55060577,71.02760315,12.30433178
1048,0.775784314,-0.442704439,-8.579487801,29.06269455,53.14526367,30.27237511
1049,1.649803519,0.862501025,-7.706059456,54.88933182,30.59723282,47.47743607
1050,3.547930241,-0.004254021,-8.506709099,61.92009735,16.13947678,44.61203766
1051,4.489796162,-2.37599659,-10.71790981,80.3049469,11.29057598,16.93475151
1052,4.024529457,-2.714390993,-12.62444115,93.32144928,26.74339294,-14.87669563
1053,2.546435833,-3.039793968,-11.46611595,105.7528305,77.46148682,-28.64337158
1054,1.831768394,-2.704968452,-9.014227867,117.5536499,89.69742584,-32.58931351
1055,1.556020498,-1.877558231,-6.978138447,136.0066833,64.50534821,-18.88869286
1056,0.19907093,-2.699733257,-5.898572922,174.6633148,25.66401291,-6.930778027
1057,0.785185397,-4.307442665,-7.414184093,182.5342255,-9.776237488,-2.54629159
1058,2.408189774,-5.002094746,-9.711992264,173.0857086,-16.61379623,1.31165719
1059,3.429166079,-4.140805244,-8.682174683,167.2379761,-26.10037994,14.11443615
1060,2.851053476,-2.845194817,-8.632018089,162.5849304,-21.27263069,26.17427254
1061,1.251180887,-2.754140854,-8.814630508,168.6221771,-26.28637695,27.23719025
1062,0.514424264,-2.222762346,-10.22978592,193.5275726,-20.60015106,22.8337326
1063,0.738161683,-3.23221159,-7.811125278,216.4918976,-5.164502144,26.52392387
1064,1.613705993,-4.60642004,-8.20113945,215.4258423,3.765799284,31.93896294
1065,3.091105223,-5.426158905,-8.07579422,200.5528564,-3.498610973,42.26753616
1066,5.173744678,-5.261757851,-7.68175745,189.9266968,-10.98298359,41.76840591
1067,5.639317989,-4.032002449,-8.211445808,181.8543549,-21.46112061,32.24614334
1068,4.904932022,-2.803014517,-9.32648468,189.2567291,-29.89259911,38.03514481
1069,3.244477034,-1.537185311,-8.585899353,156.7353516,-24.52385712,45.71248245
1070,1.584109664,-2.629145622,-6.858250618,72.85467529,-29.63812828,51.4958725
1071,0.356047422,-3.427815676,-7.747220039,-39.41413498,-26.0503521,45.79161835
1072,0.350129575,-2.751652956,-8.366984367,-74.28751373,-41.62138367,38.4429245
1073,0.547151804,-2.576503277,-6.667004108,-122.8881073,-50.16930389,28.43110275
1074,1.029836535,-1.544769287,-7.643604755,-181.3694763,-43.8275795,13.55614948
1075,2.281936884,-2.050490856,-7.594306946,-206.3247528,-46.83268356,-3.851483583
1076,2.681840897,-2.486200809,-6.440085888,-210.6827698,-32.47925949,-24.24868393
1077,1.548639774,-3.58136797,-7.690861225,-192.3755188,-27.47995949,-18.90018082
1078,0.987962723,-6.313732624,-9.172420502,-142.9696808,-25.01931763,2.436966658
1079,3.432323217,-8.123526573,-7.002928257,-102.2185669,-10.94453812,8.025957108
1080,5.184400558,-6.399412632,-6.70168066,-102.7473145,-21.4812603,1.915814757
1081,3.569706678,-3.275262833,-8.746712685,-88.27521515,-37.86341858,0.153732419
1082,1.091279984,-1.012449384,-11.3247366,-61.81916046,-15.75750256,-10.04485226
1083,-0.575062454,-0.194999725,-11.93654442,-45.64004898,-1.850572109,-20.70876503
1084,-0.976756394,-0.784852803,-10.59247971,-43.40608215,14.34270096,-23.84175301
1085,0.029535823,-2.6873703,-7.662347317,-51.70281982,31.55114746,-23.35725784
1086,0.909966886,-4.215250492,-8.784852028,-36.97402191,28.72120285,-23.44737434
1087,1.593947291,-4.860434532,-10.52468491,-21.46195793,38.19215775,-28.18623924
1088,1.173765302,-3.962132692,-11.16112328,-25.14065361,32.70872879,-29.42879295
1089,1.486994028,-2.021568298,-10.97549057,-29.67320824,22.9700985,-28.77701187
1090,2.238724947,-0.853534579,-9.826938629,-45.1127739,27.70865822,-27.47289848
1091,1.545814753,-1.127215624,-8.575644493,-71.83221436,39.78164291,-25.28503227
1092,1.510621905,-0.475289941,-8.989959717,-63.59948349,40.70215607,-24.9007206
1093,1.647321343,-0.794558048,-9.088476181,-54.10429382,30.51391411,-28.80706787
1094,1.856105328,-0.612174749,-9.156682968,-38.63949203,27.45679855,-27.41049957
1095,2.692072392,-1.68403995,-8.958058357,-41.66140366,30.20581818,-17.95152092
1096,3.616488218,-2.517012119,-9.077322006,-57.84793091,29.0091629,-12.39742661
1097,3.596901178,-1.856814265,-9.652374268,-68.90628815,23.07369041,-13.74143982
1098,3.31011796,0.09536843,-10.65537739,-76.64344788,28.07082939,-15.70104408
1099,2.171491623,2.018849611,-11.0222311,-89.25571442,49.80652237,-11.96222878
1100,1.184565306,2.763418436,-9.710494041,-127.3180847,67.384552,-12.16708183
1101,0.584976315,1.959207058,-8.389568329,-174.8355408,69.31407166,-20.74387169
1102,0.033839509,1.535096645,-6.653691292,-230.0320282,68.47106171,-30.79580307
1103,0.67086947,3.228104591,-8.997167587,-208.8243561,34.42336655,-27.9348278
1104,0.880846381,5.237854958,-10.78020096,-138.3597717,-19.87206459,-21.15200806
1105,1.14434576,5.457119942,-10.74791241,-141.134552,-50.88259888,-23.37234688
1106,1.861590743,4.458992481,-10.02113247,-174.4029999,-65.42147064,-23.96975517
1107,2.1362679,2.574082136,-9.414877892,-224.8091888,-66.66506958,-21.74981499
1108,3.667694807,2.017182589,-9.543899536,-260.3692932,-35.6252594,-20.10666847
1109,3.905529499,1.666531801,-9.715677261,-219.8931274,-25.42756271,-14.68770409
1110,4.192252159,1.343274713,-8.698626518,-172.0871429,-33.76604843,-23.35765839
1111,4.473891258,2.351472616,-7.272348881,-146.4809113,-55.15929031,-36.47810745
1112,4.065379143,2.854391098,-7.169516563,-139.2422028,-68.45963287,-39.19012451
1113,2.509621382,3.209253073,-7.471955299,-118.5672073,-76.89723969,-39.96944427
1114,1.04785502,2.614555359,-7.012030125,-88.84186554,-94.87509155,-40.02677917
1115,0.124463506,2.825958014,-6.393277168,-50.64089966,-93.79180145,-36.73398209
1116,-0.496914178,2.625047207,-5.179108143,-16.12143326,-79.08892059,-32.57056808
1117,-0.381605566,2.338294983,-6.131524086,47.0118866,-74.6439209,-24.67216492
1118,-1.126417756,1.085949183,-8.448461533,129.1377716,-68.21727753,-14.30517578
1119,-0.061233148,2.016436338,-9.222103119,195.6353607,-61.13958359,-8.67001915
1120,1.127877235,3.374898195,-8.739019394,241.3753357,-55.36875534,3.160516024
1121,1.483807802,1.898916006,-7.683376789,235.555954,-37.81594467,14.39457989
1122,0.590552568,1.20305109,-7.909786224,221.8235168,-1.431768298,9.626740456
1123,0.950494885,3.408370972,-9.411108971,234.6133728,31.38218498,1.169739008
1124,1.53312242,4.810999393,-10.70438004,247.927536,35.74824524,-3.715175629
1125,3.172502756,4.499424458,-10.77146626,229.2830048,24.20497322,1.240943789
1126,4.452690601,3.86172986,-10.00594807,185.7170868,0.275581419,9.732071877
1127,3.884558439,2.761144161,-10.5183382,116.2779312,20.66589546,13.43847656
1128,1.479434967,2.572478294,-12.12910175,83.81573486,29.34840393,16.53983116
1129,0.501755834,1.892134428,-12.10245419,59.39307785,12.89401054,21.16832924
1130,-0.300111532,1.085879087,-10.20066929,19.90143394,21.74815559,21.23777962
1131,-0.21451351,1.356669664,-10.24910069,-9.52056694,32.88283539,23.14554787
1132,0.179361671,2.331396341,-10.9910841,-14.73643017,30.93100357,22.82273483
1133,-0.005192924,1.428578019,-11.19929028,-16.68616104,24.2850914,29.40809631
1134,0.87200278,0.571466267,-9.928920746,-39.43527222,31.49991798,30.48064804
1135,3.192649603,0.542462587,-7.974903584,-84.41396332,51.37449265,22.16158295
1136,3.378165245,0.107803389,-6.562422276,-81.58299255,71.09230042,6.357738495
1137,2.00434494,-2.017474174,-7.617418766,14.62199783,40.95631027,7.644424438
1138,1.461232781,-2.677876711,-10.01567364,74.56085968,44.42864609,18.68019867
1139,1.729791164,-2.147537947,-8.513333321,91.5409317,50.82319641,25.76838112
1140,3.118171215,-1.71461904,-8.781945229,58.73625183,48.44890213,12.94340038
1141,3.535754204,-1.655434847,-12.29937363,39.79524231,54.62304688,-6.73950243
1142,3.016428709,-2.040945292,-12.09762478,54.27575302,64.23524475,-21.56403351
1143,2.235207558,-2.017653942,-9.131382942,76.98199463,76.43132782,-32.27641296
1144,1.35764432,-1.767965794,-7.759228706,99.78009033,81.59338379,-32.24246979
1145,0.658019066,-2.806474924,-5.77918148,127.9156036,32.74801636,-16.83931351
1146,1.280767918,-4.129554749,-7.159934044,130.4397583,-8.355416298,-1.662748456
1147,1.853203654,-4.741849899,-10.14524555,137.4916229,-9.786091805,7.714353085
1148,1.929125667,-4.209005833,-10.36466694,147.0302277,-16.07354546,12.73470497
1149,2.192394733,-2.007182598,-9.789923668,169.3033142,-7.86012125,11.52192497
1150,2.430085421,-1.84642601,-8.51217556,181.0774078,5.941165447,14.06712437
1151,2.776064157,-3.092815161,-7.72397995,191.1989288,12.99309349,25.00800514
1152,3.553906202,-3.99169755,-8.168623924,212.3106537,17.25169373,36.62274551
1153,2.46203351,-5.164613724,-8.624156952,235.4462433,16.71893883,43.45331955
1154,2.531516314,-5.834848404,-8.686159134,242.3881378,11.52017593,45.00690079
1155,3.701550961,-4.944161415,-8.662675858,242.5656738,6.956904888,42.62147522
1156,4.796842098,-3.833372116,-8.365467072,223.1268463,1.836206555,40.97494507
1157,5.015483379,-2.561974525,-8.388980865,181.151001,-6.769961834,35.12813187
1158,3.824314356,-1.895656109,-8.387564659,147.9887543,-17.8148365,33.51844406
1159,1.883772969,-2.730784178,-6.455447197,105.2171631,-34.11427307,44.76862335
1160,0.578924239,-4.611032009,-5.192739487,57.57163239,-49.24967957,48.71645355
1161,0.430405915,-5.73324728,-5.803236485,11.08437538,-23.96808243,45.80686569
1162,0.828689516,-6.133751392,-6.343008518,-27.9871788,2.572856188,40.83633041
1163,1.767890692,-4.597966671,-7.324850082,-56.42514038,-6.882152081,31.95078468
1164,2.362649679,-4.049771309,-7.061621666,-115.346611,-25.94512558,24.00128555
1165,2.454749823,-4.043025017,-5.425393581,-164.0362091,-25.54881859,6.394262314
1166,2.914069653,-3.019286633,-4.403073788,-171.4471283,-16.30996704,-17.29279327
1167,0.426612914,-3.803520918,-6.491442204,-161.812088,-17.48423386,-15.77309418
1168,-0.188353896,-6.589417458,-7.385803699,-122.8115463,-34.68512344,5.441525459
1169,2.243358135,-7.201123238,-7.091192722,-98.61117554,-38.14930344,9.072019577
1170,4.635721207,-5.766059399,-7.411833763,-118.9469376,-33.37151337,-6.11407423
1171,5.626105785,-3.609878302,-8.621836662,-124.4771118,-27.27223969,-19.87735748
1172,4.428296089,-2.650447607,-9.772414207,-112.7126236,-19.94854546,-28.46469688
1173,1.366854787,-2.74094224,-11.18535995,-104.1034775,-22.46847725,-34.73278809
1174,0.011748303,-2.92244935,-12.26397228,-91.86914825,-17.71240616,-35.20415115
1175,0.410382181,-4.12898922,-11.32086372,-83.12688446,0.340286732,-27.72459793
1176,1.842297673,-4.856481552,-9.335534096,-80.27346039,15.71913624,-21.09296227
1177,1.711853862,-4.946404457,-8.204227448,-81.97833252,27.43358803,-34.15386581
1178,1.37932086,-4.907516956,-9.950070381,-63.21396255,34.76531982,-39.56891251
1179,0.854176462,-5.353229523,-9.700826645,-41.29058075,21.3546505,-35.25175095
1180,0.816506922,-4.38337326,-10.10077953,-21.51389313,7.286092281,-33.19487381
1181,2.098784924,-4.005024433,-9.424945831,-10.8021183,9.827378273,-29.31945229
1182,2.883754015,-3.043899775,-9.32850647,-18.38521385,18.98348427,-25.1713295
1183,2.774165392,-2.271681309,-8.287726402,-32.42216492,26.39736748,-18.92967987
1184,1.950021982,-0.852982461,-8.905812263,-32.56957245,35.31233978,-19.23749733
1185,0.413505793,0.064028189,-9.102372169,-21.05733871,37.50695801,-30.06784821
1186,1.808667541,1.193709254,-9.429461479,-9.491344452,34.91081619,-35.70389938
1187,4.683263779,0.666032255,-9.014291763,-10.05485535,31.9234848,-26.67989731
1188,5.603254795,-0.840771258,-7.833230019,-50.80542755,26.86408424,-20.71378517
1189,4.235034943,-1.783264875,-8.457657814,-91.10792542,21.43842125,-22.75182533
1190,1.979058743,-1.670943737,-10.02085686,-99.86417389,18.65032959,-20.14448547
1191,0.474807233,-0.932441056,-10.48629189,-92.80994415,20.37036896,-12.2247467
1192,0.497399867,-0.111488372,-8.401774406,-113.1324844,17.28320503,-4.692271709
1193,1.337013483,1.071985245,-7.168213844,-155.3086853,28.7418251,-0.291037053
1194,1.355243206,1.527590752,-7.15619278,-191.9620667,37.28340912,-5.553748608
1195,1.067056894,2.115944862,-8.388706207,-209.3914185,27.50947762,-17.04518127
1196,1.33680892,4.252757549,-10.22346115,-183.6140137,-11.41772175,-30.12905502
1197,1.628710032,5.626280308,-11.52231121,-160.6949615,-48.4669342,-28.93679428
1198,1.919543624,4.18492651,-10.65313053,-197.7637482,-51.83238983,-26.57584763
1199,2.520418167,2.262457848,-9.233764648,-237.1475372,-50.10911942,-24.17113304
1200,2.829525232,0.649836659,-8.24553299,-255.836731,-41.37567139,-23.70075035
1201,3.101132631,0.861966252,-7.8895154,-239.9475555,-36.19162369,-22.8037529
1202,3.575927019,1.276200294,-8.031822205,-185.1236877,-51.07825089,-22.50912476
1203,3.883742094,2.079155922,-7.149385929,-153.2261505,-60.72792816,-28.92352295
1204,3.926634073,2.903659344,-7.262949944,-134.419754,-70.61692047,-34.16369247
1205,3.17536068,3.38802433,-8.660406113,-103.8808441,-71.37822723,-39.474617
1206,2.218768835,3.962365389,-8.47994709,-73.56320953,-78.6105957,-43.48965073
1207,1.144974709,3.74600482,-7.435976028,-60.90011978,-108.3969498,-36.27218628
1208,-0.343910545,4.421162605,-7.400065899,-19.50771713,-124.0198746,-22.77727509
1209,-0.23226364,3.957684755,-7.197707653,18.17505074,-114.0057678,-18.43927765
1210,-0.436098665,2.502323151,-6.695602417,69.56244659,-89.16823578,-17.32315254
1211,-1.11572063,1.70589757,-8.533992767,140.0995789,-81.77806854,-16.45517921
1212,-0.127775073,2.610987663,-8.929084778,191.4827728,-65.69973755,-2.087774992
1213,0.667906284,2.745179653,-8.660458565,211.0359497,-38.1434288,11.73355579
1214,1.525906801,1.770419478,-8.660168648,188.616394,-19.81994057,13.077672
1215,1.149248838,1.934227467,-8.875558853,164.5674438,7.543208122,6.56775713
1216,0.709082365,2.898822546,-9.460630417,181.5817871,54.49721146,2.526660919
1217,0.283263266,3.610566378,-10.28499413,212.0493774,41.42200089,2.861120701
1218,1.766349077,3.737532377,-10.90739918,219.8594055,14.81331825,6.604104519
1219,3.531947613,3.564346552,-10.50518513,196.0633545,14.36433506,11.28555012
1220,3.102101326,2.528308153,-10.19549561,150.0657349,22.17511368,18.04628944
1221,0.865449309,1.795752406,-10.0861063,108.3370285,51.75614929,20.98653603
1222,0.15147385,2.10642767,-10.38388062,83.99328613,54.3711319,23.53279305
1223,0.949694932,2.07031846,-10.39422607,61.93580246,40.05064392,26.07344055
1224,0.759503424,1.225596666,-11.14012909,33.04150391,33.83123016,22.9933548
1225,0.340553522,1.006151199,-12.09412384,-11.44299412,45.06244278,17.37431335
1226,0.257557124,0.722527266,-11.82786846,-45.08787155,52.99368668,15.9142437
1227,1.078480124,-0.334202349,-9.792077065,-49.93406296,43.62165451,12.31168938
1228,2.696771145,-0.026694834,-8.327682495,-68.15663147,58.17391586,3.37262845
1229,3.989304781,0.239927292,-7.325564384,-90.83730316,75.72251129,-4.890423298
1230,2.559807301,-0.562539101,-7.455421448,-79.67923737,87.22006226,-6.320099354
1231,0.751435757,-1.561013699,-9.132081985,-14.0095396,76.07106781,12.13260651
1232,0.350024611,-0.700172424,-8.198202133,33.63477707,51.33978653,40.02028656
1233,2.684217453,0.208309382,-8.811876297,54.80041885,26.57258987,47.89296341
1234,4.577311039,-0.984919488,-10.92060184,50.18758011,25.98012161,29.4969368
1235,4.783082962,-2.254077911,-13.43820095,63.64625931,55.2541008,1.312959075
1236,3.654624462,-2.988045931,-12.11003208,72.66403961,94.69411469,-15.69589424
1237,2.32380271,-2.626993179,-9.167941093,75.05142975,100.8760986,-20.50792885
1238,1.667027712,-1.583722591,-6.664524555,83.60102081,61.68226242,-7.104658127
1239,0.28328526,-1.977622271,-6.350194454,128.0912781,10.7877388,14.94573116
1240,1.240330458,-4.237897396,-5.543086052,149.0510712,-30.28466034,26.95104599
1241,2.04209137,-4.741264343,-8.875164032,147.6532898,-37.07353592,22.20136261
1242,2.176837206,-2.851782799,-10.12866974,152.7637787,-26.92337608,31.73288918
1243,1.3702811,-2.385729313,-8.234839439,134.5941315,-27.48622894,48.68970871
1244,0.763619721,-2.426936626,-7.822882175,136.5306396,-17.81427193,37.82307434
1245,1.69819808,-3.522136927,-7.353857994,153.5159302,-34.3073349,22.79270172
1246,2.921805859,-4.589904308,-8.700668335,175.4601135,-33.55720139,17.90452194
1247,3.876428127,-5.363978386,-9.360313416,204.7461243,-15.3555069,26.73897934
1248,4.272138119,-4.829354763,-9.636369705,223.0164948,3.422544956,38.10432816
1249,4.693638802,-3.95250392,-7.812205791,209.0722961,12.77573586,43.24158096
1250,4.726088524,-2.960734606,-7.496506214,178.9640198,-5.899200916,39.22146988
1251,3.787561893,-1.452864528,-8.529787064,150.134903,-24.30710602,34.03699493
1252,3.054092884,-2.276184559,-8.620894432,119.0694733,-31.0048008,33.37997818
1253,1.953467727,-2.30851078,-7.200302124,55.60174179,-35.03548813,35.82343292
1254,0.578081131,-2.868520021,-7.092251301,-17.32359695,-41.15185165,38.56188583
1255,-0.104680404,-3.501165867,-7.910161018,-43.1812973,-50.28290558,35.91289902
1256,0.605087996,-2.328712225,-7.970752239,-45.26861572,-55.85716629,24.06595039
1257,0.809867799,-2.672317505,-7.160595894,-92.77563477,-54.36367416,7.779957771
1258,1.402968168,-3.136735678,-6.067932606,-152.9661102,-43.21403503,-8.661426544
1259,3.307071209,-1.563203931,-5.623188496,-164.8132935,-24.86431313,-23.59911346
1260,1.841782808,-1.169105053,-8.552324295,-154.4740601,-8.17660141,-20.04569817
1261,-0.465423465,-2.886590481,-8.928595543,-117.6477585,-12.45847988,4.897575855
1262,0.968210936,-5.644779682,-8.937856674,-86.71517181,-4.478545666,7.563376904
1263,4.36435318,-7.202605724,-8.308753014,-90.54127502,5.173955441,-8.563735962
1264,6.141890526,-6.068400383,-8.864976883,-86.63963318,2.010390282,-18.80937386
1265,5.125295162,-3.434660673,-9.83498764,-79.65222931,7.500300884,-19.78696251
1266,2.618526459,-2.355528831,-11.4875536,-66.00971985,13.92384148,-16.01881027
1267,0.627936006,-1.853603005,-12.60550594,-39.42763901,22.11807632,-13.28459263
1268,-0.349318266,-2.1451087,-11.16518402,-16.84885597,44.90065002,-18.01714897
1269,0.4925493,-3.017734051,-8.553707123,-22.7906189,56.94234085,-19.33416176
1270,1.968485594,-3.350641727,-8.548520088,-27.07085228,54.84192276,-17.60572243
1271,2.351067543,-3.263603687,-8.50090313,-40.81270218,57.6226387,-18.19347
1272,2.095592022,-2.989995956,-9.906317711,-39.19043732,47.9946022,-12.85990238
1273,1.925413489,-2.172450304,-9.677387238,-36.03723907,33.53778076,-16.4413166
1274,2.503396273,-1.953180075,-9.103238106,-32.93896866,26.21146584,-23.29088211
1275,3.245377541,-2.73355794,-8.100387573,-47.63451385,26.36684418,-18.72402382
1276,3.104414701,-2.646780729,-8.297574997,-54.4285965,27.75893784,-11.72677517
1277,3.078659296,-1.047114372,-9.388485909,-44.3897934,28.7616024,-11.07012177
1278,2.454915047,-0.160324976,-9.692913055,-29.09646988,24.91749191,-25.20105743
1279,2.801505804,-0.204833835,-8.851688385,-33.15139771,24.23752785,-34.4432106
1280,4.192838192,-1.409769773,-7.886359215,-62.70874786,23.41787148,-31.99606895
1281,4.840660572,-1.725903273,-8.435325623,-88.47410583,27.96076202,-29.26627541
1282,4.617396832,-1.179428816,-9.293991089,-92.14546967,33.64079285,-24.19016647
1283,3.09602046,-0.135424018,-9.459961891,-90.24359131,20.20495033,-18.51401711
1284,0.771875679,1.526692986,-8.783025742,-114.6534424,14.49791527,-21.66142464
1285,-0.274797976,2.524751425,-7.554050446,-159.2186737,5.604988575,-24.52470398
1286,0.207503125,2.531788826,-6.912063599,-211.3452148,-0.807863176,-19.24688911
1287,0.565925598,2.565624952,-7.637591839,-235.0153656,-11.04044247,-13.86413002
1288,0.800998271,2.506966114,-8.350100517,-209.8025055,-28.69924355,-17.4695282
1289,0.813538671,1.845795631,-7.667351723,-206.5546265,-59.0328064,-28.03565025
1290,1.693670392,2.882447243,-9.010094643,-216.8036041,-80.06149292,-27.15693855
1291,1.575315475,3.450884581,-10.32983303,-217.8320007,-76.86516571,-20.23518944
1292,2.114358664,4.551595688,-10.03860092,-210.1658173,-68.86549377,-19.0399704
1293,3.62578845,4.378217697,-9.883823395,-190.3068237,-57.80068207,-19.06976318
1294,4.893912792,4.103704929,-9.894061089,-155.821991,-51.31941986,-15.82579803
1295,3.879532337,3.614015579,-9.393873215,-144.8621674,-63.50823212,-15.0931921
1296,2.709691048,3.027439117,-9.434698105,-132.6811981,-65.39115143,-18.41162109
1297,1.927380919,2.629723072,-9.19435215,-110.350647,-64.11811829,-20.24814606
1298,1.092814922,2.992803574,-8.558236122,-96.4917984,-70.19381714,-24.83127213
1299,0.47149086,3.403147936,-7.460044861,-59.17826843,-77.87525177,-29.51832581
1300,0.19227013,3.457170486,-5.911565781,-27.24081421,-71.64513397,-36.80334473
1301,-0.700469911,3.565508366,-6.144367695,16.24367714,-52.16244125,-40.16980362
1302,-1.610455871,3.627293348,-7.966247082,85.70870209,-61.14046097,-31.67207527
1303,-1.0095644,3.862765074,-8.768358231,150.203476,-72.51247406,-12.95429707
1304,0.556240141,5.404989719,-8.376448631,189.7949829,-63.34771729,0.140716806
1305,2.093562603,4.419092655,-7.333372593,186.3181763,-43.25754547,7.511516094
1306,1.448492408,2.769427776,-6.909144878,170.5586395,-6.129864216,-0.243627414
1307,0.261335194,3.826231241,-10.13053131,181.5905762,29.40478516,-3.750006199
1308,0.732300699,5.151237488,-12.09275723,184.9886627,30.96580696,3.206665754
1309,1.762153625,4.828443527,-11.4857893,167.2132721,35.31545639,8.941514015
1310,4.499289989,3.967339993,-9.268622398,142.3215027,24.94283485,12.87038136
1311,4.497507572,3.701675653,-8.761572838,87.45892334,9.845212936,11.80331993
1312,1.974018574,3.412184238,-9.681063652,63.44142914,16.76294327,9.067785263
1313,-0.601779103,3.598286152,-10.05486679,60.66828156,11.16536903,15.94358921
1314,-1.227541208,3.734561443,-9.575137138,37.74998474,2.05313611,27.93264389
1315,-0.413873166,3.697962999,-9.624894142,-0.156225309,-2.699756384,34.58486557
1316,0.163019806,3.252911329,-10.1269331,-23.66487694,1.432289839,32.9659462
1317,0.156008124,2.720714331,-10.39818954,-31.69150162,16.47744751,29.88713837
1318,0.936857402,1.706848621,-9.825766563,-31.35052109,8.445449829,26.88743591
1319,1.745857358,0.731221199,-8.612732887,-46.81995773,16.75787544,21.21746635
1320,3.042037964,0.615392208,-6.462399483,-60.71011734,40.00691605,8.89223671
1321,3.077917814,1.21738863,-5.569350719,-49.22160721,59.29789352,2.028049469
1322,1.414870858,0.940237582,-7.961271286,-9.488211632,45.9597168,10.77019691
1323,0.468769372,0.802889526,-9.33463192,24.19614983,39.96306992,27.0555706
1324,1.787597537,1.646033168,-8.722255707,36.45652008,46.01800537,35.46094131
1325,4.230588436,1.858846545,-8.661970139,22.09977341,40.62844849,34.30753326
1326,4.725075245,0.731228113,-10.13070202,5.507110596,47.94245529,21.86088943
1327,3.806391001,-0.201125935,-11.32115269,32.866436,62.53812027,7.646039963
1328,2.975469589,-1.29426074,-11.30495548,71.61800385,91.76692963,-6.33031559
1329,1.961270928,-2.00668025,-10.49723816,88.87400818,114.9889526,-9.083954811
1330,1.332843542,-2.333065033,-7.954220772,81.99319458,91.53624725,-0.797160864
1331,0.937920332,-1.519926667,-7.407973289,109.7790527,53.98256302,11.10440636
1332,1.153600812,-2.332971096,-7.144826412,169.9230804,10.27404881,24.24009514
1333,1.994204044,-3.911844492,-6.959573269,171.8410797,-14.59677887,25.11929893
1334,1.666533113,-3.939602375,-8.306091309,159.4159546,-48.21701813,25.9972229
1335,1.739512444,-2.702458858,-12.13852692,175.4443054,-44.50667191,23.831007
1336,1.146641374,-1.911273003,-10.45656967,213.2277374,-36.3203392,29.02249908
1337,1.64048171,-1.947114348,-9.916006088,223.1238098,-41.50628281,31.1701107
1338,2.35500741,-2.477047443,-9.280873299,225.5619812,-31.32303619,27.43546867
1339,2.643452406,-3.068213463,-9.128372192,224.4517059,-22.64840508,24.96383667
1340,3.566310644,-3.875692368,-9.078046799,229.2462311,-18.06606293,25.93918419
1341,4.697133064,-3.838362217,-8.863637924,226.7485046,-24.89744949,29.76999092
1342,5.101436615,-3.963372946,-9.388336182,219.4086914,-36.76599503,32.81062698
1343,3.298594952,-3.37985158,-10.53576183,214.7475739,-38.24407196,26.6960907
1344,1.38209784,-2.404041767,-9.001289368,198.0222473,-22.30029678,20.49473763
1345,0.740266442,-2.985553026,-6.640816212,134.2605133,-32.95477676,26.83684921
1346,-0.063963652,-3.844266891,-6.372368336,40.20161819,-39.06358719,27.30007172
1347,-0.091391459,-3.99948144,-7.231014729,-12.14810085,-31.77102089,20.30073929
1348,2.245483398,-2.507918119,-7.163385391,-29.86837387,-32.29425812,12.08524799
1349,3.616962194,-1.241970539,-7.680352688,-69.02333069,-45.79580688,14.62110424
1350,4.469573498,-0.602538347,-7.075887203,-131.4398956,-46.93102646,6.986958504
1351,3.744737387,-0.773437202,-6.404470921,-136.6770172,-36.89083099,-12.61259651
1352,0.343039244,-4.748323917,-6.620166302,-136.0239563,-19.95119667,-25.13976288
1353,-0.887799323,-6.376324654,-8.202753067,-110.6830902,-16.89957809,-17.29183006
1354,1.687267184,-7.385703564,-9.140213966,-89.1709671,-5.857406616,-8.501774788
1355,5.355538368,-6.577172279,-8.937152863,-97.73070526,6.668688297,-21.27939987
1356,6.348855972,-4.965782642,-8.609235764,-96.87919617,6.942260265,-37.2338829
1357,4.044357777,-2.950570822,-8.687196732,-93.66271973,12.03714943,-44.27582932
1358,1.173263788,-1.592584372,-9.395014763,-88.01737213,4.537103653,-37.15428162
1359,-1.001103044,-2.488983154,-9.720083237,-74.59447479,3.887589216,-27.1865139
1360,-0.290618807,-4.368854046,-10.22542572,-50.48987198,9.960114479,-28.99179268
1361,1.271288872,-4.596899986,-9.05146122,-36.12361908,21.32908058,-40.24987411
1362,1.159789443,-4.650915623,-7.431882381,-29.28310394,28.13066673,-47.51540756
1363,1.66321075,-4.247563839,-9.330440521,-14.07297611,26.55318832,-47.33831024
1364,2.297246695,-3.98050499,-10.35844231,2.694010258,29.03557587,-38.16360474
1365,2.265399218,-3.779544353,-10.11848831,-3.762394905,28.78792,-30.86757851
1366,2.050220251,-2.77293992,-10.11842251,-13.82326698,28.60758781,-30.11229897
1367,2.76477623,-2.147073269,-9.447515488,-30.25400925,22.70776176,-28.29603004
1368,2.832627535,-2.294472694,-8.704623222,-51.49912643,31.15781403,-21.50542068
1369,2.343404055,-2.079956293,-9.679613113,-46.54271317,43.98577881,-17.31735229
1370,1.409399748,-2.148437023,-9.387876511,-31.90634155,45.08200073,-22.27483559
1371,1.932496309,-1.767323375,-9.506490707,-10.68568802,48.64886093,-27.48454475
1372,3.825744152,-1.204354167,-9.119429588,-0.603223741,47.1360817,-27.59319496
1373,4.864195824,-1.009264588,-9.102800369,-1.675440311,37.1476059,-22.83332443
1374,4.295295238,-1.207387209,-9.244674683,-20.72937965,24.76454735,-18.38995552
1375,3.27888608,-0.069453195,-10.25097084,-40.27535629,24.03425026,-20.62609673
1376,2.118655205,1.018667221,-8.979570389,-86.3581543,41.43265533,-28.6489563
1377,1.478379726,1.391731024,-7.588965893,-164.7868805,52.55593109,-31.68827057
1378,1.492312551,1.647362232,-7.324314117,-233.0188751,60.96828461,-36.81814957
1379,1.754840136,2.85718441,-8.258466721,-263.1379089,32.75862122,-38.57174683
1380,1.711812735,4.192183971,-10.79880428,-241.5162811,-15.10880756,-20.5062561
1381,0.865041673,3.287422895,-12.45452881,-204.5172729,-46.5187645,-13.31030369
1382,1.634595394,2.408479691,-11.34723186,-215.891098,-49.04585648,-26.0451107
1383,3.078133821,3.105998278,-8.645278931,-252.1250763,-35.24251938,-40.88648987
1384,3.728395224,2.456401348,-7.722943306,-285.3348083,-30.37666893,-42.60870743
1385,3.20716238,0.343875885,-9.040389061,-263.0805969,-36.01367569,-34.08920288
1386,2.655309439,0.284702539,-8.553750992,-219.220108,-40.16335297,-40.57680511
1387,3.384555817,2.73649168,-7.348714352,-188.2709656,-48.26387024,-50.46806335
1388,4.589486122,3.685506821,-6.315912724,-181.5153961,-64.75263977,-51.25592041
1389,4.294342041,3.952637672,-6.66338253,-178.297348,-68.27962494,-53.28851318
1390,3.101492643,4.875406265,-7.929236412,-134.820816,-73.30912781,-52.00412369
1391,2.194829702,5.391107082,-8.389939308,-88.4594574,-83.26770782,-41.16589355
1392,1.149511218,4.653936863,-7.580388069,-71.38563538,-77.79508972,-31.72732162
1393,0.27836293,3.622967482,-5.651327133,-63.0994873,-69.95114899,-37.26350403
1394,0.504842103,2.889787912,-5.310694218,-2.686461926,-67.97252655,-42.97347641
1395,0.676673532,1.208018064,-7.513632298,86.79868317,-70.63648224,-25.78992081
1396,0.552227914,0.795144439,-7.446642876,153.1139984,-73.14501953,-7.088727474
1397,0.401924521,3.635537148,-7.802383423,197.1248322,-61.04431152,1.920427442
1398,0.548829019,2.7417171,-7.090177536,159.6945038,-17.2876606,6.824363708
1399,-0.02901803,3.818665028,-7.728470325,156.6717682,27.43492317,-4.398617744
1400,0.782560706,5.307560921,-7.936399937,205.7382507,53.33328629,-2.594070435
1401,0.327398479,5.884522915,-9.16498661,234.9240112,39.58323669,7.594450951
1402,1.931465626,5.853120327,-9.801647186,229.4164124,13.94219398,20.87675095
1403,4.802190781,4.783227921,-10.00699329,201.1351013,-2.319302082,35.28749847
1404,5.22604847,3.409414053,-9.800004959,162.4051666,5.537412643,44.99642563
1405,3.179993868,2.455933094,-9.551593781,137.8648071,17.97502518,43.38402939
1406,1.672142148,2.636712313,-9.7109375,135.8070068,2.434155464,43.34300995
1407,1.064928412,3.362401485,-10.02164936,114.1341934,-8.206562996,48.378582
1408,0.810253739,3.790176868,-10.41493797,64.74197388,-0.246758834,53.13910294
1409,0.856744826,3.308033466,-10.72848225,8.184159279,18.46185493,52.05957413
1410,0.811044574,2.983488083,-10.92365742,-28.05891991,38.65782928,37.13986206
1411,0.199113652,3.627495527,-10.74987888,-23.26493645,39.44387817,27.42387009
1412,0.515544057,1.83405149,-10.37902451,-36.85568619,25.13464546,27.66127014
1413,2.18504858,1.203638077,-9.547260284,-94.80374146,30.50461197,24.81886673
1414,4.289941311,2.657072067,-6.07132864,-136.5050354,57.89494324,5.301990986
1415,2.839093924,1.574003696,-5.882541656,-112.3713837,54.10180664,-4.061845779
1416,0.038178939,-0.230090737,-6.283269405,-66.6676178,27.97468185,11.4361372
1417,-0.95784831,1.46149075,-7.716976166,-14.25137234,-8.068143845,40.76327515
1418,3.381148338,1.82919395,-10.58409977,17.09417152,-17.96583748,43.06207657
1419,6.314653873,0.434599727,-11.83137417,-23.1424427,24.66048622,20.75238991
1420,6.516156197,-0.317849636,-11.78588676,-31.08993912,39.14242554,-10.88913536
1421,4.605498314,-0.440317601,-11.72624016,1.90510118,69.38172913,-48.17239761
1422,2.066984415,-0.596477866,-9.80396843,39.76796722,75.12503815,-52.00491714
1423,1.169307113,-1.021635532,-7.314390182,50.40757751,46.52279663,-31.63702011
1424,1.348498106,-1.707750678,-6.178996086,61.0213356,25.79553413,-8.064285278
1425,1.689318538,-2.787662506,-7.280947685,113.1128616,23.56447983,6.090865612
1426,1.46466279,-2.61111927,-10.5072937,180.8504181,28.49567032,10.5314436
1427,1.263136983,-3.089212656,-10.34220219,215.2978058,38.24237061,21.24054527
1428,1.733849883,-1.525568843,-9.184884071,236.6808167,14.86640549,39.25328445
1429,1.282044291,-1.067206025,-6.782016754,221.7132416,-31.75378227,48.705513
1430,1.784218669,-0.989654541,-8.557050705,209.1340027,-33.56352615,47.8914299
1431,1.827484846,-1.143992186,-8.651306152,204.127243,-24.85923958,39.76741409
1432,1.410649657,-1.856165409,-10.09449673,234.1200104,-27.27990913,41.57361221
1433,2.693631887,-3.00036478,-10.79606533,252.2801361,-9.817893982,46.58530426
1434,4.84622097,-3.741443634,-10.48582077,261.724884,4.760043144,53.3627739
1435,5.847639561,-3.894054413,-8.90128994,256.9951172,-1.330172658,53.04241562
1436,5.247701168,-3.346614122,-8.531140327,222.5432129,-10.91736603,39.64663696
1437,4.419942379,-1.680253983,-9.681574821,193.742218,-9.590193748,36.94348145
1438,2.931424618,-0.624409437,-9.655620575,147.0823364,-5.749183655,40.03594208
1439,2.165290117,-0.92723006,-8.117371559,85.60029602,-1.190841317,37.26815033
1440,0.650883377,-2.701233149,-7.500360966,-1.218704224,-21.67650795,35.11716461
1441,-0.2521258,-4.355158806,-8.01736927,-46.14406967,-30.15703773,26.28501892
1442,1.397674561,-4.304030418,-7.703336716,-32.80072403,-41.59536743,9.640258789
1443,2.939299583,-2.693870783,-7.42250967,-83.40196228,-57.20911789,-10.10686302
1444,1.838256001,-1.814167142,-7.046899796,-160.8517151,-64.95602417,-20.1712265
1445,1.556835055,-0.928233504,-6.003507137,-171.3640289,-55.56118393,-24.10920906
1446,0.684453249,-2.869817972,-6.559606075,-151.6191711,-26.83914185,-17.11142159
1447,0.189946398,-4.732961655,-7.64082098,-131.7730865,-12.30047035,-0.624059856
1448,1.923637748,-4.937216759,-8.256316185,-92.87523651,-6.284606934,1.194715142
1449,4.345508099,-4.695136547,-8.898513794,-95.06917572,-16.52589607,-6.128334045
1450,5.304461956,-3.537121058,-9.47492218,-97.61798859,-16.54997826,-7.305764198
1451,4.308856964,-2.348161697,-9.619544029,-93.26567078,7.614679337,-4.211101532
1452,2.680154324,-2.430704117,-10.66062164,-78.84494019,11.84749031,-4.874500751
1453,1.332819104,-3.615036964,-12.1183157,-45.08714294,10.10800266,-7.969419479
1454,0.714960635,-5.284572124,-10.89490986,-19.99267387,18.93401527,-11.91900253
1455,0.939987659,-4.947353363,-9.353625298,-16.71011353,27.66273308,-20.95062447
1456,1.621270537,-4.179445744,-8.623781204,-27.84850693,22.19591141,-22.65072632
1457,1.874377966,-3.18995285,-10.69011307,-18.99398804,17.81000328,-20.08948517
1458,1.514290571,-2.025814772,-10.58812904,-1.221140623,21.65812302,-20.88247299
1459,1.809159875,-1.798864365,-9.955509186,2.695025682,24.87169266,-26.60226822
1460,2.987796307,-1.942705631,-9.03977108,-12.68774796,22.34632301,-27.01479149
1461,3.001930475,-2.605027437,-7.563311577,-46.41941452,19.40737152,-23.52897835
1462,2.86918211,-1.588096857,-9.204030037,-49.62549973,34.62373352,-17.70982933
1463,2.243489981,-0.257429332,-9.792097092,-28.67762566,40.75846863,-17.24171448
1464,1.350052714,0.647398114,-9.375352859,-22.15090561,29.77596092,-28.83224678
1465,3.533562183,1.290049791,-9.346446037,-31.53013802,19.28766441,-30.21903801
1466,5.581020355,-0.315545499,-8.846879005,-62.0812645,10.37404346,-22.68082619
1467,5.348699093,-1.541768789,-9.946502686,-88.76482391,12.81661797,-16.2523613
1468,3.243008375,-1.889533162,-10.76404476,-102.5123825,20.10034752,-14.7196064
1469,0.876659632,-1.1450212,-10.64441299,-119.6944733,17.01149178,-13.791008
1470,-0.711262107,0.697432995,-8.353287697,-166.5494232,10.6796236,-14.15365696
1471,-0.307940096,3.56256938,-7.651786804,-214.8539429,11.26382542,-7.263103485
1472,0.249973595,4.137632847,-7.808434486,-232.6578217,4.323244095,-5.475184441
1473,1.070058703,3.899950981,-9.447821617,-217.9349518,-22.16562653,-9.245236397
1474,1.586320639,3.744722605,-10.05050182,-190.897171,-44.36832047,-16.90481567
1475,1.640976906,2.650539637,-9.590583801,-191.6689148,-59.36288071,-22.96421814
1476,1.601777315,2.289384127,-8.508791924,-197.3722687,-68.51491547,-20.81083488
1477,1.594318509,1.917684436,-7.852890491,-207.2691193,-65.04633331,-17.27558136
1478,1.999363422,1.973395944,-7.891199112,-195.2289734,-57.48699188,-11.41232204
1479,3.041338921,2.642995119,-9.144968987,-155.4261017,-41.73579025,-11.98377037
1480,3.630568981,3.545576096,-8.831665039,-117.7359772,-45.33340454,-17.2801075
1481,4.209063053,3.98393321,-7.798541546,-119.5952911,-57.99586868,-26.38759041
1482,4.712496758,3.632801533,-7.436752796,-138.031601,-50.54462051,-34.30499268
1483,3.323746204,4.252865791,-7.838846684,-134.0015717,-45.29123688,-34.89900589
1484,1.380024314,5.153894424,-7.904103279,-107.0464478,-54.62394714,-23.81591225
1485,-0.07241489,4.2948246,-7.559184074,-69.16299438,-48.40624237,-16.36091042
1486,-0.086149946,1.540068269,-4.500357151,-22.78498459,-54.93011856,-34.16373062
1487,-0.282771647,1.720919609,-5.54191637,26.23908806,-22.27152443,-38.03446579
1488,0.24153474,2.58360076,-7.976272583,109.0840073,-11.55646801,-18.85087395
1489,-0.453558058,4.429961205,-8.647659302,166.5010986,-24.10425186,-1.769245982
1490,-0.437978148,4.961350441,-8.890458107,213.5181885,-14.91718483,7.653588295
1491,0.376987696,2.009011745,-7.54966116,212.3004608,0.565829933,13.56235123
1492,-0.377206415,1.082720399,-7.328723907,188.7442932,24.09244156,12.58538151
1493,0.862407386,3.72691226,-9.456554413,212.361969,44.85860443,16.83119392
1494,2.935168505,5.431191444,-10.35277367,243.1544037,30.04666138,19.18766785
1495,4.190542221,5.658114433,-10.07691574,221.6367493,5.788628101,16.9876976
1496,4.691983223,4.247308254,-10.19402122,183.1869507,-22.74480057,22.47865868
1497,3.675855637,2.092775106,-10.01899052,119.0268936,-39.27119064,31.84685326
1498,0.752309322,0.994036615,-9.70863533,54.01362991,-9.842414856,28.99503708
1499,-0.487739265,1.936327219,-9.966913223,39.9063797,21.63658524,26.79823494
1500,0.6182428,3.481500387,-9.289848328,28.18156624,12.37951279,34.90034103
1501,1.19345963,3.377765894,-9.524700165,6.227982044,-1.397000194,36.56425858
1502,1.041286945,2.702471495,-10.71378517,-6.639453888,1.209230542,29.91471672
1503,0.509920955,1.969921708,-11.42762947,1.455920339,9.269856453,29.59185028
1504,0.229592428,0.840525448,-10.59508324,-7.522173882,17.02240372,28.44252586
1505,1.347724676,0.77221781,-9.857624054,-40.42459106,25.15255356,23.51075363
1506,3.549233675,0.14823404,-7.90374279,-68.59883118,40.37010574,14.55298996
1507,3.363080502,-0.593716621,-6.728559017,-61.68151474,63.37380981,4.410494804
1508,1.640089273,-0.744092822,-8.353648186,-9.931609154,73.78813171,4.254423141
1509,0.868905306,-0.178385153,-9.829877853,39.80831146,61.73566818,15.76676655
1510,1.486657619,1.391862273,-9.433850288,65.93195343,55.31796646,24.04579926
1511,3.39985013,1.650859475,-7.946008682,66.55899811,48.19635391,17.43208504
1512,4.53315115,-0.355657876,-8.699123383,51.22781754,45.56459045,-0.643286288
1513,3.202171803,-3.060030222,-10.0433588,37.32666779,55.38831711,-19.35204124
1514,1.670823693,-4.014724255,-10.33622551,40.99271011,63.18906403,-24.7478981
1515,2.002274036,-2.888361931,-10.57417679,96.9580307,66.49047089,-26.14689636
1516,2.162995815,-3.009439707,-8.868151665,127.6411591,49.44244385,-31.52006721
1517,2.076528072,-2.633580685,-6.978899002,162.1451111,1.161459327,-19.11150551
1518,1.414872646,-3.189604521,-7.415975571,170.3575134,-19.45173454,-0.842719436
1519,0.488068789,-3.344286203,-8.755919456,162.0604858,-18.63501167,13.67795563
1520,1.624014616,-3.573894978,-9.43932724,142.9322968,-23.36612701,20.03034019
1521,1.79092145,-2.674468994,-10.63832664,140.0299835,-14.36132622,20.46810532
1522,1.943587422,-2.09322834,-9.371534348,155.5990753,-15.23071575,20.99605751
1523,2.252182722,-3.015022516,-7.507403374,151.6963043,-17.32664108,20.89840508
1524,1.851396084,-4.032367229,-8.320307732,157.5897675,-20.10403633,16.77254295
1525,1.634541988,-4.374238968,-9.066540718,188.4380341,-11.96308136,11.53946495
1526,1.585850954,-4.952300072,-8.822878838,218.3890076,-3.558499336,15.11270523
1527,2.589800596,-5.072179317,-8.455237389,225.3424683,1.245342374,26.1522541
1528,3.628317356,-4.776643276,-8.354752541,217.2094879,0.952576697,33.47913361
1529,3.906914234,-4.569190979,-7.794454575,205.5959015,1.199880123,24.70702744
1530,3.834143639,-3.171004057,-7.955703259,190.731369,-15.82582664,19.14280319
1531,3.583703279,-2.530668497,-8.270936966,163.9699097,-38.84045029,31.76816368
1532,2.032673597,-2.509800434,-7.298291206,101.4651184,-43.96868896,46.91744232
1533,0.001971304,-3.713122129,-6.956620693,29.36550331,-29.21636391,45.51375961
1534,-0.38046661,-4.868798733,-6.681969166,-16.73586464,-30.18537521,42.14840317
1535,0.272831738,-4.657468319,-6.107198715,-45.0408287,-37.10281372,34.71969223
1536,1.715844274,-3.328238487,-5.864061356,-82.1938858,-36.20128632,20.14419174
1537,2.331436634,-2.377320528,-6.945159435,-142.0092163,-37.70995712,6.228996277
1538,2.314220667,-3.482868195,-6.171350479,-165.3403168,-40.17642593,-12.91052723
1539,1.222235799,-3.349283218,-5.307585716,-156.2118988,-32.45546341,-28.8058548
1540,-0.563809574,-4.810486317,-7.301836491,-134.7644196,-26.37549782,-6.723301888
1541,0.002369724,-6.301637173,-8.550019264,-98.29981232,-30.14008904,18.42825127
1542,2.559653759,-6.577824116,-8.376114845,-61.82586288,-20.85880089,12.90449333
1543,4.908189774,-5.407994747,-8.775156021,-74.80222321,-32.39867401,-6.011365414
1544,5.139655113,-3.237680435,-9.414414406,-99.81092072,-43.87937927,-13.30548
1545,3.35769248,-1.833800793,-9.631324768,-109.9692535,-23.5126667,-17.67831421
1546,1.009866714,-1.495772839,-10.8182497,-107.8839493,-3.508160114,-19.20357132
1547,-0.446984798,-2.980062962,-11.09134674,-83.2723465,28.03676414,-18.63700104
1548,-0.637747645,-4.869744301,-9.709978104,-49.24650955,50.00782776,-26.10851479
1549,-0.01534313,-5.389592171,-8.40243721,-29.59148407,37.6662674,-30.59387207
1550,0.913641632,-5.59326458,-8.716161728,-28.60216713,22.65927124,-33.07739639
1551,1.499941945,-5.124835491,-10.09721184,-25.85974884,18.63838577,-29.30248833
1552,1.273344517,-3.959083796,-10.24230194,-20.81732178,28.02275276,-22.69688416
1553,1.354908228,-3.452179193,-10.36117172,-13.03940868,28.49205971,-21.93327332
1554,1.689596653,-3.551661253,-9.510210991,-20.63754654,26.67724419,-22.95968628
1555,1.601660013,-3.166845083,-8.178092957,-29.62446022,27.28189659,-19.70708847
1556,0.979248524,-3.43889451,-7.243263721,-50.19357681,33.90605927,-17.71422005
1557,0.981361926,-1.479963541,-8.674436569,-35.92344284,37.44208145,-21.71615028
1558,1.183480263,-0.63930279,-9.443612099,-13.16628361,30.74362373,-28.08683395
1559,2.980732918,-0.571516037,-9.883584976,-2.328835249,33.41801071,-22.75720596
1560,4.764576435,-2.181908607,-8.931956291,-21.65138054,31.32183838,-10.6134758
1561,4.75800848,-2.508658886,-8.705524445,-63.09523773,13.7123003,-7.770085812
1562,3.647732258,-1.161290765,-9.887615204,-95.63061523,14.12693882,-5.656481266
1563,1.762958884,-0.446756244,-10.70367908,-100.0548096,47.20980835,-2.084387541
1564,0.698394716,0.307289273,-10.25333214,-99.38396454,67.02906036,-2.319225788
1565,0.776496708,-0.333129585,-9.820551872,-121.8392105,67.13796234,-6.370659828
1566,1.228129625,-1.215401053,-8.056696892,-176.738678,57.62165451,-24.28744698
1567,1.541485667,0.021397233,-7.376855373,-224.7774658,50.0379982,-46.25962448
1568,1.937667251,2.445364952,-9.453584671,-206.8297272,23.26150894,-45.60302734
1569,1.808297753,3.401114464,-11.599123,-153.17836,-23.67606544,-27.54594803
1570,1.324827194,2.966703653,-9.891583443,-158.7380829,-32.26635742,-24.01653099
1571,1.636569381,2.361296892,-9.339743614,-176.5855255,-56.98879623,-21.33799934
1572,2.031184196,0.777546167,-8.94235611,-195.3903503,-57.90612411,-18.25436974
1573,2.534163713,0.147306025,-9.422553062,-198.3262634,-39.34562302,-14.02347183
1574,3.215070963,0.892298698,-8.740089417,-184.0558777,-36.52764893,-21.58758545
1575,4.382083893,2.845390797,-8.384597778,-167.2639313,-40.98394394,-34.68292999
1576,5.176615715,3.942067623,-8.425629616,-149.2620392,-53.21976852,-40.26305008
1577,4.727341652,4.213606358,-8.671156883,-151.4020844,-57.17246628,-36.29546356
1578,2.702523947,4.207512856,-9.001110077,-144.3685913,-66.31596375,-26.85887146
1579,1.454905272,4.304379463,-8.792453766,-116.298027,-97.25752258,-22.49739265
1580,1.194775701,3.56319046,-8.229811668,-70.65184021,-128.7866211,-20.67661095
1581,0.303901792,2.074808836,-6.475698471,-38.02949142,-111.5048676,-25.82745171
1582,-0.735097587,0.541841328,-6.00428915,6.441673279,-77.09767151,-24.80558014
1583,-0.930723131,0.480546832,-7.431100845,83.31629944,-52.41933441,-16.84120941
1584,-0.357188523,1.295176864,-7.52078867,149.679245,-48.13194275,-5.75855732
1585,0.505954802,3.202516794,-7.086889267,173.4514618,-57.95023346,3.048277378
1586,1.26162076,3.915940762,-7.766210556,172.7570496,-54.26461411,15.06328106
1587,0.734056115,2.60157609,-7.835082531,143.7766571,-6.737073898,16.00952721
1588,1.119854331,2.824228287,-9.0386343,142.3376312,43.40591812,2.411604404
1589,1.717011452,3.446477413,-10.49811935,175.6093597,46.3436203,-5.326793194
1590,2.049648046,3.152924299,-10.42516994,189.1790619,38.45698166,1.166625857
1591,3.060562372,2.7967062,-9.765953064,179.6656494,46.50648499,12.005867
1592,3.540246964,2.416371584,-9.715524673,153.1689911,55.44505692,20.43611145
1593,2.545075893,2.093389034,-9.769016266,105.5344238,64.03032684,24.06294632
1594,0.9896698,2.708360434,-10.53688431,66.30223083,62.93354797,23.55111122
1595,1.152954817,3.680873871,-10.35291195,44.98773193,36.42074966,24.6834259
1596,1.433032751,3.284097672,-10.07024384,14.71847248,21.82428932,27.8856945
1597,0.587033093,2.041385174,-10.45087242,-10.72039032,30.62063599,32.53652191
1598,0.670717895,2.079827309,-10.80174637,-20.92614746,33.77804947,34.03129959
1599,1.09995234,1.528985381,-10.12374878,-34.20696259,32.97994232,25.62272072
1600,1.901834011,0.787165582,-9.436611176,-41.60906601,28.15444183,19.7253952
1601,3.64876318,-0.140191406,-7.850983143,-46.8374176,36.66790009,14.1964159
1602,4.133423328,-0.281856596,-6.757567883,-44.78297043,52.91498947,10.75026512
1603,3.059221983,-0.363273442,-7.898989677,-17.20160103,49.80522156,11.81490803
1604,1.927534819,-0.658153474,-9.279244423,21.60669136,29.02010155,24.54721451
1605,1.876585364,-0.14100948,-8.374017715,41.93413544,23.89098358,36.42902374
1606,3.307210684,-0.222403944,-7.85838747,48.25266266,17.01470566,32.57289124
1607,4.35904932,-1.808585644,-8.908141136,53.52044296,16.64559937,20.05971336
1608,4.068046093,-3.625748396,-10.66199589,77.20862579,31.39077377,5.277824402
1609,3.983005047,-3.998105288,-11.64219189,129.2284546,54.57019806,-7.275409222
1610,2.768059254,-3.107738495,-9.58980751,154.2605133,66.05350494,-8.121314049
1611,1.565248489,-2.502176046,-7.89703989,148.5154572,55.04429245,6.687895298
1612,0.755295217,-2.903388023,-7.219784737,166.284256,5.626002789,28.50031281
1613,1.830690145,-3.740783691,-9.139036179,171.3064117,-31.1123867,36.23482513
1614,2.242824793,-3.860645294,-9.051188469,158.2039642,-30.89196205,37.60029602
1615,2.655695438,-2.741124153,-8.612862587,161.0826263,-39.552948,38.92197418
1616,2.430956364,-3.336272001,-7.194740772,149.0753021,-31.59218025,41.77229691
1617,1.761171937,-4.058121681,-8.091918945,154.173111,-33.49762344,39.91456985
1618,2.304392815,-4.178622246,-8.999526978,184.7221527,-31.24128532,33.05170059
1619,2.863332033,-4.453870773,-9.394324303,215.3498993,-20.32123947,34.88749695
1620,3.496897697,-5.1082654,-9.34356308,228.5072937,-4.277719975,42.632164
1621,4.12819767,-5.068296432,-8.680970192,224.1710968,1.461822271,49.99253082
1622,4.805263042,-4.20642662,-7.860197067,202.207077,-1.1674366,44.43256378
1623,4.389003277,-2.534721851,-7.957933903,173.6095734,-14.23435593,35.55651855
1624,2.892867327,-1.982267141,-9.08010006,145.1960602,-26.61131287,33.62740707
1625,1.303528786,-3.283291101,-7.926653862,82.12482452,-14.18142128,30.91251755
1626,1.672491789,-3.083540201,-7.320545673,6.150717258,-21.28740311,40.21221924
1627,1.338095784,-4.128143311,-7.839483261,-23.9841156,-19.9793129,42.59884644
1628,0.930837333,-4.684908867,-7.583440781,-20.65774536,-9.711567879,34.44507599
1629,1.576665282,-4.60299778,-7.906822205,-22.89914131,-13.74593639,26.41377831
1630,2.25334692,-4.648706913,-7.95599699,-67.07750702,-36.15933609,16.00936508
1631,2.554129839,-4.658516407,-5.883049965,-130.8207092,-33.14144897,-5.519411564
1632,2.335019112,-3.505853653,-6.464542866,-167.6378632,-33.24995041,-24.16602516
1633,-0.405941457,-4.555260181,-7.468992233,-162.465271,-58.22301102,-9.448399544
1634,-0.235142604,-7.347969532,-8.499109268,-111.1421432,-33.40274429,4.768888474
1635,2.550885201,-9.038779259,-6.835492134,-63.58906937,-9.205511093,3.582103491
1636,5.403065205,-8.08529377,-5.981517792,-57.95726395,-20.59579659,-12.59662151
1637,4.563621998,-6.297856808,-6.777123928,-71.32540894,-32.2800293,-26.39621925
1638,2.485872984,-3.458508492,-8.028411865,-70.55862427,-31.86953354,-25.42071533
1639,0.212760314,-1.532343984,-10.22107601,-67.36100769,-22.83106613,-19.3682766
1640,-0.74769789,-1.683591485,-10.89577007,-70.12336731,-3.833131313,-26.05093193
1641,-0.646887779,-3.071073532,-9.942409515,-53.8957901,4.981199741,-36.54658127
1642,0.315313131,-4.20394659,-7.650004387,-44.26831436,6.043803215,-43.98398972
1643,1.390240312,-4.532002926,-8.48303318,-41.66824341,17.45125389,-38.87989426
1644,2.235086918,-5.395820618,-8.90603447,-38.93825912,19.21157074,-22.24076462
1645,1.525387406,-4.834422112,-9.075316429,-37.5395546,28.07459831,-15.71717548
1646,1.311869621,-3.806338549,-9.109303474,-28.2028656,32.83448029,-23.64595604
1647,1.517233729,-2.774834871,-9.175503731,-26.35939407,36.85113144,-27.36419296
1648,1.689350009,-3.309988976,-7.742633343,-35.92546844,37.86830902,-21.4893856
1649,1.832752824,-3.886328459,-7.976247311,-49.00951004,28.32634163,-11.86482334
1650,1.783707857,-3.333685637,-9.514163971,-32.72277451,31.4275341,-11.13669777
1651,0.930826962,-2.626725674,-9.666007996,-11.41672134,32.57197571,-23.60164261
1652,1.851559877,-1.237464309,-9.502726555,-4.888203621,31.05310631,-23.51239967
1653,3.559455633,-1.078926563,-9.611346245,-19.35705566,24.9028492,-13.3832407
1654,5.08597517,-2.215189934,-9.420226097,-44.90842438,23.02569008,-8.797698021
1655,4.539610386,-2.555840731,-9.692679405,-63.77819061,26.05162048,-8.786400795
1656,2.489619017,-1.842865944,-9.877796173,-75.83690643,27.44352531,-5.543080807
1657,0.446531802,-0.78531158,-9.387925148,-101.0181885,36.07500076,1.030222893
1658,-0.61414963,-0.462095022,-8.818922043,-136.8120728,45.98970795,-4.308731079
1659,0.201217353,-0.639460087,-7.649785995,-182.4907074,56.38455963,-21.66119385
1660,1.684383512,0.180470645,-6.730340958,-239.3697968,60.68937302,-39.35481262
1661,2.505913973,2.316406727,-9.25412178,-243.3189087,21.57899094,-42.20959473
1662,2.28938365,3.817128897,-11.97618008,-194.7525177,-22.26081657,-30.14941406
1663,1.572990179,3.985372543,-11.7419796,-193.6301422,-32.65735626,-23.82174873
1664,1.307613254,2.972372293,-10.70414734,-204.0610657,-32.35038376,-25.15706062
1665,2.033690453,2.267751217,-9.995113373,-222.3057709,-44.17711639,-31.56435966
1666,2.565066338,1.819189429,-9.072336197,-243.7515259,-40.33340073,-36.72678757
1667,3.22053647,2.118629932,-8.63110733,-247.0591125,-37.26245117,-36.2301178
1668,4.25348711,2.285561562,-8.899991035,-226.9926147,-46.81329727,-31.04095268
1669,4.790533066,1.396450996,-7.978281498,-203.6625214,-63.45250702,-30.57803917
1670,4.445347309,1.611943483,-7.045009136,-182.031601,-76.39569092,-37.33703613
1671,2.39721179,3.483756542,-6.718605042,-148.2512512,-79.02705383,-45.18837357
1672,1.124344707,4.746647358,-8.021377563,-107.940979,-93.11405945,-41.06050873
1673,0.935608566,5.015768528,-8.663918495,-90.69778442,-100.3096313,-24.36833954
1674,0.835372925,4.471620083,-6.384196281,-98.10838318,-81.793396,-21.83668137
1675,-0.347284377,3.621796608,-3.763687372,-81.17993164,-67.41952515,-33.685215
1676,-0.554262042,1.691527605,-5.053943634,-3.380179882,-60.65119171,-35.77056503
1677,-0.381095648,0.683020532,-7.660204411,102.2866211,-52.1877861,-19.18316269
1678,-0.363031477,1.859646082,-8.52872467,168.2752838,-42.32972717,-3.285036802
1679,-0.226505533,3.612019062,-9.470930099,210.7740021,-26.77038574,9.771183014
1680,0.225962371,2.905047417,-8.778580666,219.8714142,-10.05967045,17.60760307
1681,0.569204867,2.742964029,-7.972676277,199.2349548,23.99801826,3.562662363
1682,0.632353842,3.819382906,-9.323502541,205.500473,41.17373657,-9.575410843
1683,0.852639198,4.015136242,-10.56991196,213.2789307,29.18556976,-15.072402
1684,2.023528099,4.331566334,-11.21442318,203.3415375,19.81958961,-13.91730309
1685,4.413613796,3.80843997,-10.07513428,188.371933,6.040173054,-4.329638958
1686,3.47185564,2.703890562,-9.020344734,163.6463318,-7.046221256,8.645802498
1687,1.676504612,2.907281876,-8.912351608,136.6501617,4.315471649,17.06698036
1688,0.982444644,3.096269608,-9.265533447,112.9983673,9.801981926,19.06498718
1689,0.582140803,3.69724369,-9.9915905,76.5140152,4.333908558,15.33901215
1690,1.424567342,3.873328209,-10.76493549,38.19953537,6.123506546,20.86536789
1691,1.370542288,1.739085436,-11.7474165,1.418010235,30.03048706,26.9700737
1692,0.07948339,0.747511685,-12.34644222,-16.27854729,53.22494507,25.77746964
1693,-0.355699003,1.360030413,-11.72692204,-7.984940529,50.69288254,25.67557335
1694,0.288318604,0.173132256,-10.7467947,-19.51131439,53.63911438,24.51849174
1695,1.973045826,-0.142156318,-10.25572968,-62.98838806,55.39168549,16.57022285
1696,3.564968109,0.752952695,-8.70535183,-91.94738007,66.38780975,1.128027916
1697,2.803328514,1.598274827,-5.999147415,-84.59098816,77.07766724,-10.3717823
1698,0.445750117,0.717862546,-5.785308838,-42.36415482,64.52339935,-4.928102016
1699,-0.235148162,0.315544605,-7.80038166,10.01134872,29.60298347,16.01561928
1700,0.485313594,1.326686859,-8.168787956,44.77498245,16.71392632,38.44736099
1701,2.727210522,1.730877638,-7.592060089,47.40979004,2.518314838,49.88135529
1702,4.821711063,0.63709867,-9.190237045,30.62997627,-11.30535603,46.009758
1703,5.213277817,-0.508386791,-12.1243248,29.84490395,20.97808075,21.53495407
1704,4.109673023,-1.542547226,-11.49127865,44.8254776,66.63105011,-9.884436607
1705,2.498856306,-2.82029295,-9.591436386,70.9834137,79.02338409,-22.00029945
1706,1.85089767,-4.199620247,-7.754030228,81.35631561,71.45497894,-17.88973045
1707,1.203243494,-3.911675215,-8.189712524,103.8040085,72.24791718,-11.6735096
1708,1.095286727,-2.826722622,-7.205077648,158.5213776,67.2060318,-4.722297668
1709,1.282481432,-2.990469456,-7.143851757,197.0797729,13.67464828,14.1747427
1710,2.147650719,-4.216009617,-8.180205345,195.729248,-10.25910091,29.21111107
1711,2.429256916,-2.568211794,-9.791028023,196.2867737,-28.04169273,38.14788437
1712,2.325770617,-1.299471259,-9.070874214,212.4060669,-27.57601166,41.47686005
1713,1.08090055,-1.587019444,-7.218182087,194.3444366,-15.94653511,44.05421066
1714,1.156490684,-1.80873096,-7.949243069,170.651474,-3.87053895,42.22774124
1715,2.287947416,-3.131649494,-7.472933292,180.703064,-4.218492508,45.49716568
1716,3.744884491,-5.086838722,-7.178780556,168.6903534,0.284734845,44.01106644
1717,4.745007038,-5.622220993,-8.035625458,153.0275269,-1.43312335,36.33616257
1718,5.196106434,-5.570895672,-9.019090652,150.0244598,-5.484528542,28.93166351
1719,4.395914555,-5.052605629,-9.359287262,145.5772247,-8.573923111,25.3887825
1720,3.801941872,-4.439883709,-9.261818886,136.924118,-4.066965103,23.03281212
1721,3.477447271,-4.494739532,-8.985069275,114.473587,10.28020191,28.43129349
1722,3.133982182,-5.166176319,-8.717395782,75.03317261,20.95175552,35.30904388
1723,2.120026112,-4.878316879,-8.784608841,41.11719131,7.291470528,39.93157578
1724,2.275993824,-3.845148325,-8.960670471,28.35111427,-7.21961832,43.69380951
1725,1.841053486,-2.860010147,-8.23445797,-9.695158005,-10.10624409,39.55109024
1726,0.806439161,-2.7070508,-8.079257965,-69.36418915,-24.2265625,30.86468697
1727,2.135525227,-3.824794769,-7.609081745,-115.4082489,-42.40373611,10.64535141
1728,4.151883125,-4.455441952,-5.960806847,-131.4370728,-42.68008804,-13.46451283
1729,3.710684538,-3.309447527,-5.111523151,-148.601532,-27.75639915,-23.00505829
1730,1.007594824,-5.228367805,-6.276474476,-145.3874359,-7.310015202,-7.820821762
1731,-0.515281737,-7.678878784,-7.571673393,-105.8873978,-33.71380997,8.015179634
1732,1.056786776,-6.495798111,-8.080900192,-63.56002808,-67.72904968,3.262721539
1733,5.257956982,-4.147235394,-7.3013978,-67.74235535,-41.07083511,-24.78859138
1734,5.365354538,-2.600490093,-7.338007927,-87.28223419,-37.10589981,-34.35027313
1735,3.203079224,-2.550362587,-8.019609451,-84.96456909,-22.92300987,-29.11100769
1736,0.949537516,-2.822943211,-10.27361107,-78.02015686,-14.22833252,-28.11577034
1737,0.280457318,-3.959112167,-11.1624279,-52.47351074,-9.324917793,-35.5252533
1738,0.748351753,-4.416646957,-10.02086067,-22.72373581,-0.737882316,-42.55541611
1739,1.203366756,-4.778778076,-8.072849274,-19.62599564,5.094456196,-46.23026276
1740,1.544397116,-4.619278431,-9.124139786,-17.61390305,6.041322231,-43.73691559
1741,1.769247174,-4.419772148,-9.418412209,-6.718108177,3.675500631,-39.4680481
1742,2.002969265,-3.06020546,-10.07579041,7.629374504,5.092473984,-39.25104904
1743,2.582729101,-2.222518444,-9.178201675,7.120574951,1.694865942,-39.19686508
1744,2.828336716,-1.716148853,-7.8680439,-4.22322607,7.756211758,-33.94671249
1745,2.191686153,-2.56972456,-7.169175148,-28.61882591,14.44979954,-30.56796646
1746,1.518931389,-2.743640661,-8.039340019,-30.26750565,10.73204899,-32.57428741
1747,1.021139622,-0.652242303,-8.764510155,-0.015073131,-7.230762005,-32.18980408
1748,2.216655731,0.703776062,-8.370568275,3.051538706,-37.98205566,-25.45120621
1749,3.990936279,0.690860808,-9.382948875,-16.14564323,-60.07630157,-12.65555477
1750,3.880468369,-1.257308841,-10.72268105,-45.18853378,-60.96520233,-5.366943359
1751,2.637097359,-2.793547392,-10.73749828,-90.84925079,-33.24636078,-10.02309608
1752,0.922272861,-2.526330233,-9.60425663,-125.853241,14.83590031,-8.908418655
1753,-0.733966112,-1.799802303,-8.993238449,-145.7884979,48.86859512,2.510228157
1754,-0.664688528,-1.550530434,-7.734231949,-165.0920105,67.47002411,3.95369935
1755,0.361053169,-1.010055184,-6.303443909,-178.4606628,60.16463089,1.223985434
1756,0.991040111,0.027001262,-6.749066353,-192.2157593,45.36729813,-6.161149979
1757,1.727036595,2.699587345,-9.218300819,-201.0744781,14.27247429,-7.113026619
1758,1.219236493,4.897799492,-10.74673843,-194.9601898,-8.22622776,-9.986710548
1759,0.713772118,4.46671629,-10.84545326,-213.4225464,-34.7846756,-13.45580864
1760,0.92328018,2.846826077,-10.15802383,-230.1152191,-59.13277435,-9.299703598
1761,1.391512632,0.979518652,-8.874629974,-230.2007599,-61.81245422,0.012149258
1762,2.167066574,0.348981559,-9.399745941,-215.3652496,-47.12318039,5.24308157
1763,3.216705799,0.399329245,-9.873064041,-173.3861237,-42.88067627,5.045122147
1764,2.998414278,1.418818474,-9.643205643,-148.4863586,-49.26963806,-8.626413345
1765,3.410992384,2.573123455,-7.846199512,-156.7811279,-54.27524185,-24.40621185
1766,3.012156248,2.852559328,-7.549987793,-169.9454803,-59.97316742,-31.97053719
1767,1.26803863,3.444483995,-8.692126274,-148.9173889,-52.08592606,-34.84811783
1768,0.928858459,4.047371387,-9.872242928,-89.02342224,-57.12020493,-29.70677185
1769,0.078937717,3.908930302,-8.276067734,-41.70840836,-65.05896759,-19.01420403
1770,-1.627117157,3.050563335,-7.080676079,-22.27933121,-67.73552704,-24.10246658
1771,-1.969154239,2.960676908,-8.08849144,26.94987106,-69.8129425,-27.31435585
1772,-1.594891906,2.166496038,-9.7713871,95.73088074,-57.29615402,-19.36151314
1773,-0.948434412,2.602359056,-8.677271843,141.0894165,-48.09176636,-8.634694099
1774,0.013020981,2.872905731,-8.126066208,161.1526337,-35.29375458,2.292844772
1775,0.693950176,1.470993876,-8.024376869,157.7856293,-18.5916729,4.054704189
1776,0.520045161,1.624089956,-9.271064758,162.8467865,16.54615593,-1.428183675
1777,0.911867917,2.093475819,-9.854672432,187.2826843,36.80558014,-3.700185537
1778,0.911601841,3.294983864,-10.81934452,197.0272522,33.02486801,-5.764321804
1779,2.505409718,3.694128275,-10.23706532,186.8179169,23.02441025,-2.776110649
1780,3.986429453,3.308919907,-9.405773163,166.4545135,13.29587841,1.843482137
1781,2.967450142,2.035304546,-8.987065315,134.6294403,11.9088583,2.476247787
1782,0.754412413,1.675989747,-9.097103119,107.0275116,24.34497452,-2.465058088
1783,-0.149015993,2.564877272,-10.06593513,101.1391144,27.16144371,-2.597958565
1784,0.205729455,4.360532761,-10.09056568,78.98405457,19.01236534,11.02950668
1785,0.72682339,3.984541178,-10.93415546,39.2088356,18.69704247,28.53160477
1786,-0.139050931,2.568137646,-11.54674721,6.541807652,35.98218918,28.52591515
1787,-0.485513896,1.888918161,-11.30438614,-11.77046013,41.27789688,20.20312881
1788,-0.024535891,0.485185295,-10.50961494,-33.04615784,30.46967316,17.94382095
1789,1.174002409,-0.170670569,-9.508055687,-64.05328369,30.20971489,14.68089962
1790,3.228666544,-0.237842292,-7.684648037,-85.66692352,47.44949722,6.785208225
1791,3.305398226,-0.32784164,-6.608592033,-82.16857147,62.30516434,-4.437822819
1792,1.736352444,-0.985180378,-7.020964622,-36.38880157,62.24404907,-4.189034939
1793,0.740460873,-1.467444777,-8.409837723,15.52176857,49.97584534,12.14130497
1794,1.124427795,-0.781097472,-9.197498322,46.67782974,37.32981873,34.64279938
1795,2.899259567,-0.431003779,-9.051492691,61.87986755,37.036129,37.81774521
1796,4.284243584,-1.586146593,-10.37451267,68.27742004,40.5214653,22.34679031
1797,4.360336304,-2.512003183,-12.34002972,78.24255371,78.1040802,-2.318792343
1798,3.409953594,-3.200413465,-11.20241356,86.70251465,113.1175842,-16.54531479
1799,2.553630352,-2.985463381,-9.415405273,93.34788513,111.5804749,-23.3922348
1800,1.92277503,-2.010325193,-7.99608469,100.8467789,92.05535889,-20.78322792
1801,0.857343137,-1.863833308,-7.543188095,131.8843689,37.89725113,3.651312828
1802,1.677485704,-3.028277636,-7.321818829,147.4093018,-14.0888052,23.88023758
1803,1.878873825,-2.736556292,-9.376309395,148.7925873,-7.354085922,23.50299454
1804,1.999807715,-3.343308449,-9.086836815,127.9679413,-10.55611515,25.39049911
1805,1.941071749,-3.246974945,-9.263339043,109.4601974,-20.83170891,28.19620705
1806,1.602928758,-3.61408639,-10.08614635,131.0195923,-31.06637764,25.72933006
1807,2.081710577,-5.047459126,-9.499833107,173.6757507,-32.43288803,23.77496147
1808,2.390167713,-5.341221333,-9.514773369,219.9020386,-18.2658062,24.29174805
1809,3.340221167,-4.029750347,-8.883745193,241.8031006,-17.54786873,27.27149773
1810,3.968078375,-2.646297932,-8.610798836,220.2630615,-15.79927921,28.42481232
1811,4.192436695,-1.857642412,-7.853981972,184.9434814,-16.86242485,24.2956543
1812,4.102963448,-2.181366444,-8.50792408,160.1288605,-37.05030823,20.06551933
1813,3.715780258,-2.873431206,-8.939362526,144.9513702,-35.28540039,22.38136101
1814,2.853560209,-4.471112251,-7.937917233,136.4553528,-24.31126213,30.51360703
1815,1.578650355,-4.391620636,-7.514727592,121.126236,-30.47656441,37.39931107
1816,0.663831413,-4.030206203,-7.798727512,90.8052063,-26.93557167,37.3428688
1817,0.908741891,-4.059042454,-6.317136288,49.04217529,-22.18271255,33.20288849
1818,1.282194614,-3.937757015,-5.633170605,10.30791378,-43.59761429,28.77006531
1819,1.663621783,-2.716856241,-6.587431431,-25.58788681,-49.48944092,20.84401703
1820,1.813952804,-1.704150081,-6.752637386,-95.73084259,-59.63494873,11.79591274
1821,0.8369084,-2.963550806,-5.481496811,-177.0763092,-60.97553635,-4.457013607
1822,1.462886333,-3.544844866,-4.507020473,-186.7071686,-33.45371246,-23.12311935
1823,1.181861043,-4.407875538,-5.926790237,-176.5732117,-2.539647579,-20.33786964
1824,0.391255975,-6.335041523,-8.791770935,-143.4169922,-0.921310782,-0.264207721
1825,1.414349794,-6.977732182,-8.353028297,-115.8453369,10.84779072,0.108974442
1826,4.407258511,-5.316916943,-9.149612427,-111.1795731,12.14371872,-11.45408535
1827,5.834113121,-3.888147354,-8.573785782,-122.1174164,-12.64249897,-8.263607979
1828,4.440200329,-2.54231596,-8.577622414,-121.1607513,-14.6999197,-7.180699348
1829,2.384559631,-2.864383936,-9.614441872,-99.61756897,0.594286859,-11.64568043
1830,0.562333941,-3.912751675,-11.59971333,-75.43093872,17.35207367,-21.50121307
1831,0.431022465,-4.406725407,-11.75404739,-46.26411819,38.53336334,-28.61130333
1832,0.910153389,-3.877374411,-9.471449852,-41.28957748,45.67502594,-29.95636368
1833,1.579812765,-4.047149658,-8.811120987,-44.52070999,38.23731613,-29.65702248
1834,2.419290304,-4.764773369,-10.42879772,-29.40908051,37.08203506,-32.96322632
1835,2.595005989,-4.3201828,-10.13470936,-13.646348,43.27918243,-33.28574371
1836,2.386470318,-2.730640173,-10.76291561,-3.744177818,41.23836517,-33.09203339
1837,2.532057285,-2.881746292,-9.917360306,-14.24488163,36.76135635,-33.83752823
1838,2.744533539,-2.301115036,-9.359997749,-20.01698303,33.4874649,-30.39695168
1839,2.332827568,-2.379275799,-7.468518257,-39.66599655,29.18908691,-22.54032707
1840,1.97004962,-0.842591703,-7.888836861,-52.28539276,27.46835136,-19.98236656
1841,1.598547578,-0.452523917,-9.081440926,-32.04057312,26.53765869,-27.75673676
1842,2.411476851,-1.019390106,-10.1760397,5.021937847,26.51633453,-31.73551178
1843,3.787473679,-1.670691729,-8.921993256,20.39144135,26.23277283,-24.79428291
1844,4.715648174,-2.474398851,-7.632401466,-9.049968719,7.112923145,-14.07058811
1845,4.148820877,-1.927412629,-8.590457916,-43.08694839,3.410891533,-7.384376526
1846,3.14571929,-0.93926239,-9.580984116,-62.36812592,20.65180206,-5.2294631
1847,1.643445015,0.350181669,-8.717150688,-88.19096375,38.42152405,-10.45706272
1848,0.145967305,1.573420405,-7.853009701,-114.1904907,37.63685226,-11.33656502
1849,-0.412432939,2.123853683,-7.153504848,-146.0511017,24.00469208,-11.55038643
1850,0.201175109,2.931081772,-7.333366394,-190.6722412,7.193874836,-12.27555752
1851,1.128605962,4.066831112,-9.931357384,-189.5956573,-16.52749634,-11.14381123
1852,2.344255209,3.772525787,-11.31281757,-168.8763275,-41.55598831,-13.03823662
1853,3.038301945,2.225018024,-11.27954102,-180.2075195,-57.44380951,-10.21781445
1854,3.228593111,1.155301452,-10.49902725,-204.6825562,-45.80391693,-7.63936758
1855,2.876291275,0.0699251,-9.441550255,-222.5231781,-26.34908867,-15.72290993
1856,2.531813622,0.679172635,-9.254463196,-208.4932556,-19.30659103,-29.42446899
1857,3.552793026,1.57548964,-9.369866371,-182.7936096,-17.87918282,-36.79588699
1858,4.04916811,2.261055946,-9.033481598,-166.046875,-18.57564926,-37.90043259
1859,4.227000713,2.233995438,-8.280052185,-162.1723022,-18.81729889,-38.27357864
1860,3.80254817,2.598366261,-7.985891342,-152.2233734,-35.73948288,-40.58056641
1861,3.087995052,4.28756237,-8.06143856,-141.6869812,-55.88882828,-43.08456421
1862,2.235997677,5.58153677,-8.24813652,-129.7655945,-78.03148651,-37.03214645
1863,1.323698163,4.703792095,-7.913207054,-103.2063751,-93.68947601,-22.54343605
1864,0.577430606,1.803333044,-6.036307335,-69.33914185,-90.89002228,-19.1795311
1865,0.106955677,0.413791806,-5.485337257,-10.32618046,-79.3440094,-24.13585091
1866,0.395004362,-0.061513588,-7.660806656,75.73645782,-69.4240799,-21.82068634
1867,0.972895682,0.569731295,-8.448564529,146.419754,-55.83900833,-12.8343153
1868,0.721759021,2.51071167,-8.291998863,185.1571045,-42.86546707,-5.939067841
1869,0.305634648,3.127852678,-8.940954208,221.0174561,-24.77132034,2.569222689
1870,-0.176087797,1.918496013,-8.606668472,224.5728455,6.38231802,11.03691101
1871,-0.164590091,2.299390793,-8.720709801,211.3861084,43.83285141,14.33619022
1872,2.16083312,4.949609756,-9.598326683,213.8462372,50.34911728,16.04795456
1873,3.878659964,6.74097681,-9.607455254,211.3196106,21.7005043,19.99677086
1874,3.894652605,4.800671101,-8.916528702,181.6850739,-2.448634148,25.5265007
1875,3.332244158,3.046635628,-8.744204521,153.2399597,-8.002340317,30.17391777
1876,3.083384991,0.821760118,-8.615265846,124.0739822,-14.96374607,36.92376328
1877,2.025940418,-0.256835759,-9.45008564,90.8397522,-9.655575752,34.88129807
1878,0.980504751,0.348560005,-9.646582603,66.98815918,17.32355499,32.76595306
1879,1.106191278,1.465548873,-8.923283577,33.65686798,26.81194115,36.08169174
1880,1.005887628,2.585891962,-10.37439823,4.519416809,14.89195061,34.9637413
1881,1.492041111,3.107015371,-12.68912411,-9.090147972,14.99068737,27.74702835
1882,1.399565578,2.348168612,-12.84322739,-30.10353661,43.23094559,21.19809723
1883,1.249995947,0.171830684,-10.98289299,-30.36795044,59.02565002,13.30666542
1884,1.711634398,-1.60319519,-8.901756287,-20.37121582,64.39671326,4.697649002
1885,2.832052946,-1.26683712,-7.567329407,-45.21569061,87.6388855,-1.809176683
1886,2.855941296,0.490747482,-6.620538712,-70.79560852,86.06047058,-2.44471097
1887,2.332833767,1.45480144,-7.083919048,-61.15187454,54.29721832,0.729345202
1888,2.271818638,0.544771135,-7.854273796,-38.05680084,41.11525345,6.80038166
1889,2.644116402,-0.44395557,-8.543574333,-21.56120682,41.41258621,16.16557121
1890,4.299946785,-1.192950487,-9.3176651,-13.33544731,48.22010803,16.33117104
1891,5.541282654,-2.063471317,-10.18134212,-9.924677849,54.74250031,6.47645998
1892,5.54878664,-2.531350613,-11.02345467,2.674116135,60.80026245,-2.974934816
1893,4.482010841,-2.767533302,-10.33262062,30.64582253,74.39116669,-2.887474775
1894,3.248155832,-2.371989965,-8.697257996,53.38970947,84.03783417,-7.573634624
1895,1.565610766,-1.91732204,-8.009161949,87.41311646,65.17397308,-5.923493385
1896,0.871433198,-2.176633358,-7.540849209,143.3942108,2.67888093,14.40119934
1897,2.125601768,-3.316413164,-8.7200737,181.5690155,-35.86245728,30.47174454
1898,3.064196587,-3.362118959,-9.971221924,195.4455109,-40.14266586,32.51645279
1899,3.275428534,-2.192822456,-10.29303551,199.357193,-29.7277298,36.62347794
1900,3.06045723,-1.257300377,-9.852771759,195.1828766,-4.177405357,43.15941238
1901,2.826652527,-1.680078506,-8.488109589,184.5070648,-6.346348286,53.82512665
1902,2.528405905,-1.757202625,-7.65239048,177.6205292,-7.540510178,64.87034607
1903,3.626903534,-2.196842194,-6.770540714,171.6384735,-9.884284973,71.84957123
1904,3.318733692,-3.598492146,-7.040757179,175.8315735,-12.55108643,70.47116852
1905,3.622596025,-4.551727295,-8.132190704,179.2520599,-5.518372059,61.1674881
1906,4.128643036,-5.635707855,-8.464155197,179.0487671,-7.160147667,52.49963379
1907,4.507400513,-6.291939259,-8.723920822,185.3575134,-10.17100811,44.71841812
1908,4.429387569,-4.926037788,-9.104690552,183.8536987,-15.65275478,34.31480026
1909,3.893740177,-3.426216364,-9.328644753,170.4856873,-17.34861374,27.7768898
1910,2.864130497,-2.578645945,-7.844036102,118.6391068,-13.97605133,30.66384125
1911,2.601958513,-2.080145597,-6.872625828,42.23432159,-17.14418983,45.14565659
1912,1.274384618,-2.226385355,-7.501671314,-34.89347458,-31.73147202,45.61225128
1913,0.962232172,-3.351186514,-7.843900204,-49.57057953,-31.69512177,30.06924629
1914,1.90235281,-3.882137775,-7.345469952,-61.2699585,-42.97854614,18.75843239
1915,2.763516188,-4.479085922,-7.493367195,-117.731369,-59.36417389,10.73829937
1916,2.833615303,-4.730814934,-6.444592953,-160.2324219,-45.52198029,-12.85042477
1917,3.579952478,-3.450974941,-6.729253292,-171.3412781,-30.95616341,-31.7494278
1918,2.381229162,-2.874737263,-7.867524624,-177.2508698,-28.10372543,-26.70261383
1919,-0.181326807,-4.583981514,-8.753461838,-160.625061,-43.37952042,-2.433379889
1920,1.479665279,-5.856563568,-8.463446617,-120.6620026,-26.84142876,-5.493169785
1921,4.442197323,-6.01862812,-7.758169651,-110.7207336,-19.39752007,-19.40353966
1922,5.414743423,-5.354978085,-7.884845257,-119.5453339,-23.420578,-29.854002
1923,4.300002098,-3.662379503,-7.535655499,-110.6468658,-28.20157814,-37.32045746
1924,2.724971056,-2.657936096,-8.6199646,-91.17079926,-28.10336685,-38.68702316
1925,1.216044068,-2.639525652,-10.93192387,-68.58390045,-26.60025978,-33.70104599
1926,0.74254185,-2.745192051,-11.49806499,-35.76054764,-7.127560139,-31.21935463
1927,1.803460956,-2.87581706,-10.21080494,-19.92075157,23.44899368,-29.49019241
1928,1.714382291,-3.759663343,-8.831484795,-26.92044449,35.35299683,-33.52925873
1929,1.134503126,-4.454596043,-10.20275688,-19.07561684,25.19058609,-34.0305748
1930,1.547640443,-4.269123077,-10.60775471,-4.289023876,20.31239891,-26.35138893
1931,3.033603668,-2.585567713,-10.6998024,1.103552461,26.32196808,-16.63798332
1932,3.102266073,-1.611846924,-9.58332634,-12.57833576,36.23444748,-18.48083305
1933,2.659293413,-0.823694527,-8.468976974,-35.1687088,23.94091415,-13.91943359
1934,1.842283964,-1.605171084,-7.577908993,-57.86270523,20.45521164,-5.401560783
1935,1.393602371,-1.69430542,-7.889336586,-51.09742355,25.03581619,-13.79404163
1936,1.092633724,-0.920586407,-8.665473938,-25.28530693,29.33487701,-23.945755
1937,1.825180411,-0.353047609,-8.166538239,-9.168300629,29.25622368,-20.16531944
1938,3.094468117,-0.157178745,-8.490184784,-14.72163582,18.57104492,-6.782385826
1939,3.526615858,-0.355531961,-9.724328995,-25.76874161,9.293554306,0.58444494
1940,3.504452705,-0.575843215,-10.76760483,-40.30764771,14.70301342,1.107986927
1941,3.144002199,-0.384047121,-11.13564777,-55.51270294,31.573946,-0.60378325
1942,2.183852673,0.167190343,-10.09361935,-73.74999237,49.84706116,-6.722599983
1943,1.491127849,1.089400649,-8.110990524,-117.1398392,53.70392227,-18.42080688
1944,1.24269557,1.58756125,-6.125735283,-189.5120087,58.78991699,-33.11182785
1945,0.986058116,2.714641333,-7.212247372,-234.8022919,44.16505051,-46.93258667
1946,1.593520761,3.731635094,-9.586592674,-190.0438538,-21.54796219,-41.11273575
1947,1.23348093,4.24946022,-10.02370453,-145.3904724,-70.9739151,-30.7233963
1948,1.304519415,4.089086533,-10.27460575,-147.654068,-94.06608582,-24.09033203
1949,1.847930431,3.326343536,-10.47935772,-192.0490265,-104.6029968,-16.09548187
1950,1.713504553,2.525838137,-9.818670273,-241.6384888,-87.47130585,-14.66268635
1951,2.201737642,1.984908938,-9.84862709,-254.681366,-58.62020874,-20.96508026
1952,3.053085804,2.642631531,-9.411417007,-227.86409,-49.44021606,-29.22794724
1953,3.770250797,3.625031948,-9.021997452,-193.2372284,-49.34385681,-29.4289875
1954,4.018586636,3.638931274,-8.814723015,-162.0040131,-63.28610229,-21.04920387
1955,3.395686388,2.826429367,-8.522166252,-147.7679443,-73.20630646,-19.19207764
1956,2.229905605,2.494943857,-7.665835381,-136.3036346,-77.96547699,-24.24939156
1957,1.238827348,2.666153669,-7.412212849,-103.7411194,-89.16014862,-26.34803963
1958,1.076598644,2.134913206,-8.149802208,-47.58309555,-98.09230042,-21.74145317
1959,1.308870196,0.882538378,-6.721230984,-5.333599567,-69.52980804,-22.27014923
1960,0.136871055,0.438748509,-6.714618206,53.14440536,-42.14702988,-28.87878036
1961,-0.80764997,1.270165443,-8.482191086,123.3827133,-25.94446182,-27.76669502
1962,-1.232822061,3.009229183,-8.361275673,158.8130188,-4.125718117,-13.70663643
1963,-0.206292003,4.331737995,-7.915241718,176.8955383,2.789075613,-1.490656853
1964,1.117144704,3.395341873,-7.034540176,163.9506378,9.380525589,6.116414547
1965,0.234024838,2.025311708,-7.06213522,135.8229828,41.52259064,3.998817444
1966,-1.159803271,3.030715227,-8.730278969,152.9460907,67.07124329,-4.090481758
1967,-0.208593786,4.102107048,-10.3337841,192.4375153,60.61865997,-4.140233994
1968,2.3648808,3.926852703,-10.4146328,203.6391602,41.02362061,3.257297516
1969,4.495228767,4.085450649,-10.01079082,196.1932678,34.19429779,14.66884899
1970,4.366088867,3.6977458,-9.275953293,172.4290924,31.21445274,17.93568611
1971,2.596991062,2.93914175,-9.491624832,126.6263962,26.52964401,10.17035484
1972,0.90635848,3.308787584,-10.46793938,97.77271271,30.84905434,8.939696312
1973,1.320260525,3.703803778,-10.49979019,68.82314301,29.55134964,20.41446495
1974,1.851164818,3.391804218,-10.10400867,29.2443943,44.21612167,25.38549805
1975,1.578585267,2.309297323,-10.92589951,-17.24497986,55.76300812,20.03774071
1976,1.47427547,2.141928911,-12.10055637,-48.28712845,58.07159424,14.91039848
1977,1.541636467,1.273667693,-11.54859829,-57.4227066,46.47220993,19.93676567
1978,2.15637064,0.359974682,-10.05194759,-43.83515167,32.80456161,23.46774292
1979,3.355474234,-0.113001876,-8.24185276,-45.97197723,45.0496254,20.92922401
1980,3.423126936,0.151863053,-6.600545406,-59.35535431,63.51481628,7.960379124
1981,2.436900616,0.584160745,-6.896579266,-25.10645485,53.97248077,5.83908987
1982,1.901989579,0.919014513,-8.350371361,33.91475296,33.82870483,21.12332726
1983,1.461887717,1.427047729,-7.45765686,58.51016235,16.52540779,39.19826126
1984,2.786469936,0.636152029,-7.131930351,64.81059265,-15.43737507,39.72756958
1985,4.323840618,-1.534124255,-9.027643204,77.87924194,-27.08889008,26.81878853
1986,3.832387924,-3.659970999,-10.39605331,99.86761475,0.799573481,6.564939976
1987,2.753136158,-4.280097961,-10.74396801,111.9035645,46.38137054,-19.85853004
1988,1.913141012,-3.695920944,-9.307260513,105.086647,50.19310379,-31.56358528
1989,1.563730597,-2.275189638,-7.839351177,108.0058594,28.80655289,-27.98001099
1990,1.608951449,-1.479664207,-6.134347439,143.387085,1.528709769,-14.27633476
1991,2.157310247,-1.492025852,-6.447848797,175.386734,-14.45271111,2.400357723
1992,1.768516421,-2.270076752,-8.558039665,175.7255707,-27.10771561,17.23181534
1993,1.799466848,-3.309571981,-9.858062744,144.4759827,-31.83104134,22.21333504
1994,1.621862531,-2.957151651,-8.761179924,118.0447693,-25.82495308,21.2514782
1995,2.134455919,-2.768087149,-8.69305706,108.217659,-18.70817947,19.73475266
1996,2.561345577,-3.617609262,-7.961144924,108.1845398,-24.43581963,27.20056152
1997,2.89232111,-4.938004971,-9.195928574,134.8812408,-20.32664299,35.33319092
1998,2.649098635,-6.165887356,-8.429561615,173.0680695,-2.695193529,43.30155945
1999,2.61286211,-6.125376701,-8.917992592,189.4666443,9.666737556,42.2621994
2000,3.489403009,-4.718959808,-8.968034744,197.3520355,11.19137478,32.51055145
2001,4.577079296,-3.393711567,-8.370157242,186.6421967,-2.978848457,26.11418152
2002,3.985095739,-3.023908615,-8.604850769,156.5984802,-19.4043293,24.03660202
2003,2.525077105,-3.132732868,-9.294492722,128.1436462,-25.98821068,28.73035431
2004,1.637031078,-2.686748743,-8.871813774,106.6188889,-17.52581406,31.52775764
2005,1.04658854,-3.074913502,-7.498642445,61.82630539,-12.47860336,31.56876945
2006,0.655590177,-4.169257641,-7.306251526,-0.522776306,-9.912337303,30.8551445
2007,1.14059937,-4.697439194,-7.26880312,-37.00307465,-21.92202377,26.89953232
2008,1.994887114,-3.93206954,-7.614109993,-47.05583572,-40.23031998,20.47297287
2009,1.876217842,-3.615078688,-7.575670719,-79.52703094,-44.00191116,18.82336998
2010,2.070409536,-2.975737333,-7.019387245,-126.4608612,-39.2208519,13.73327255
2011,2.532777548,-2.345281363,-5.694728374,-153.7891541,-16.49100685,-1.635591984
2012,1.402893066,-2.407906294,-6.440512657,-153.184845,-11.84359646,-14.78073597
2013,-0.567620814,-4.360442162,-7.394055843,-126.4410248,-14.17778397,-10.81452847
2014,0.606633604,-6.214746475,-7.379586697,-87.28938293,-19.58314514,-3.046620131
2015,3.626390219,-6.145683289,-7.464760303,-83.28675842,-28.39571571,-8.660512924
2016,4.752838612,-4.936383247,-8.075537682,-101.5291138,-35.48432159,-18.46943474
2017,4.378882408,-3.661786795,-9.474981308,-99.74466705,-27.53899384,-22.81844139
2018,3.486902237,-3.315260172,-11.22538471,-71.42194366,-7.911371708,-23.25437737
2019,1.584369302,-2.946011305,-11.68786049,-44.34666061,12.30874348,-27.58571815
2020,-0.218752041,-1.690679073,-10.11787891,-47.53328323,23.1877079,-24.69844818
2021,-0.302967966,-2.290983438,-9.152955055,-51.78177261,27.94319153,-8.52157402
2022,0.439161748,-4.092389107,-8.824522972,-36.11013031,38.72589493,-6.520182133
2023,1.306095362,-4.825765133,-9.122502327,-18.20062637,39.60912323,-19.87285233
2024,1.335484147,-4.83869648,-9.626424789,-3.243732452,21.74537086,-25.10783958
2025,1.078013301,-4.459927559,-9.614402771,2.901330233,11.82224178,-23.44382095
2026,1.795427442,-3.440264225,-9.721263885,-9.219635963,17.42378998,-24.0994873
2027,2.708233118,-2.546496153,-9.583552361,-33.38286972,21.92142296,-25.33735466
2028,2.425997257,-1.905583143,-9.60771656,-43.34970093,26.18000412,-24.33613396
2029,1.610185742,-1.911781788,-9.697396278,-24.94702911,36.28197861,-27.26284981
2030,1.031369567,-1.91825819,-9.74156189,-2.996816158,37.60832977,-35.26690292
2031,2.256935596,-2.118489027,-9.925823212,17.26368332,31.58018875,-28.37290764
2032,4.051352501,-3.375658989,-9.607018471,23.37917709,28.30018806,-16.98871422
2033,4.543401718,-3.855704069,-9.386615753,25.84867668,19.28823853,-14.37280273
2034,3.917347908,-3.429945469,-8.230319023,0.929723859,15.64003849,-19.14636612
2035,2.383943319,-1.193486571,-8.189799309,-38.28812408,12.41210461,-23.03091049
2036,1.352127433,1.290037632,-8.958812714,-74.32725525,10.23461914,-17.80660057
2037,1.320037603,2.085630894,-9.136329651,-123.3404465,2.159695387,-3.099097729
2038,1.52717948,1.114357829,-8.914670944,-158.630661,10.42266464,4.216014385
2039,2.169458389,-0.768926442,-8.510592461,-179.3663635,26.59881973,2.669005632
2040,1.848577738,-1.867203236,-8.719420433,-170.2233582,34.67966843,-4.283129692
2041,1.207417727,-0.951588154,-8.319203377,-159.6964264,19.51243019,-8.331459045
2042,1.134798169,1.64010334,-10.21147633,-130.7028656,-10.8890934,-6.018286705
2043,1.802030325,3.448220015,-10.86742973,-113.6568756,-41.06004333,-5.177707672
2044,2.17046237,4.198966026,-10.03470421,-145.329361,-40.08823395,-11.61989403
2045,2.309221029,3.006541014,-9.122659683,-180.4238281,-30.47305679,-19.39067841
2046,1.88810122,1.460671544,-8.388348579,-208.1963196,-24.41517067,-21.78551292
2047,2.220374346,0.402356863,-9.582829475,-189.9126129,-36.61032867,-16.38505745
2048,3.108298302,0.562191248,-9.424864769,-156.4146271,-44.41258621,-12.17668819
2049,3.906290293,1.557642698,-9.162669182,-140.477829,-47.81613159,-15.91486645
2050,4.405494213,1.423387647,-8.356295586,-132.5907898,-56.83982849,-24.88946152
2051,3.156376362,2.464873075,-7.979548931,-127.7873459,-64.12937164,-35.70921707
2052,1.697566748,4.113184929,-9.058083534,-118.9474182,-70.81838989,-36.45118332
2053,1.236490846,4.966086864,-10.0534153,-116.8395844,-89.16936493,-30.10587502
2054,0.534674466,4.941064835,-8.990937233,-125.0638351,-95.74636841,-21.14085007
2055,-0.460526109,4.114859104,-6.229439259,-101.0253143,-90.13169861,-19.45079803
2056,-0.11919,1.73161459,-5.106165886,-65.56414032,-79.18022156,-24.19939613
2057,1.264776468,1.203966022,-7.200561047,-9.812924385,-69.94329071,-28.43597984
2058,1.865498781,1.449224591,-7.576986313,62.38270569,-74.36312866,-23.59960365
2059,0.341722339,2.220906734,-6.664899826,102.0796127,-71.31204224,-15.04661655
2060,-0.607007742,2.423727036,-7.281374454,131.7329712,-65.67163086,-13.35528469
2061,-0.14765203,1.363095284,-7.586246014,150.5093231,-40.66863251,-6.638010979
2062,-0.135009155,1.689109206,-7.614882469,168.8165283,0.84673202,-1.413975835
2063,0.600621581,2.990327835,-8.573755264,191.1703186,20.88323021,-9.363663673
2064,0.79354918,4.172856808,-9.532132149,208.3888092,22.0821228,-18.15353966
2065,0.284132838,3.435409069,-10.00248337,202.9489899,20.84061623,-10.87439537
2066,0.958809197,2.645652294,-10.87570953,191.5435638,22.93610191,-0.396767139
2067,2.237995386,1.943819642,-10.62231922,173.127182,20.78402328,4.087732315
2068,2.13497591,1.592764139,-9.521701813,149.7643585,31.27750969,2.433913469
2069,1.497346997,2.324721575,-8.838496208,125.2602234,47.04905701,2.07940197
2070,0.942474544,3.348920107,-9.37579155,92.89821625,49.61561203,5.990411282
2071,0.564257562,3.556378126,-10.36931324,54.65285492,33.81633377,16.68243027
2072,0.335510671,2.437716246,-10.97459698,16.00619316,22.38465691,24.19598198
2073,-0.032589417,1.560987711,-11.42414856,-11.90058136,31.60091591,22.1392498
2074,-0.33796224,1.129409432,-10.83272266,-26.17579079,38.48959351,18.44814682
2075,-0.397608042,0.254730642,-10.12688637,-26.33371162,30.60632133,24.01779747
2076,0.739770055,0.297005713,-9.333406448,-22.41934395,15.16736794,30.61478615
2077,1.88522172,0.946755528,-8.631458282,-29.10993195,15.80339813,28.00831413
2078,2.860476732,0.343100101,-8.235814095,-49.55677032,24.20819855,17.61258125
2079,2.686423063,-1.572256088,-8.098690987,-60.30202103,54.48248672,7.276168346
2080,2.269890547,-2.987771273,-8.559399605,-14.71073341,66.43548584,11.94411278
2081,1.753227472,-2.885007143,-8.712018013,60.651371,67.43156433,27.82073784
2082,2.716190577,-2.084903002,-8.135625839,75.62745667,75.83908081,24.27474594
2083,3.909004211,-1.421795011,-9.485927582,48.17124939,75.022789,10.46523094
2084,3.817894936,-1.26144886,-11.44737244,16.90414238,72.79911804,0.19264327
2085,2.782733679,-1.357915401,-12.53145027,12.58817101,69.50131989,-11.71097851
2086,1.57988739,-1.902740359,-12.15366077,31.13302422,66.71057892,-25.49272346
2087,1.575950384,-2.379732847,-10.53158665,67.92275238,77.41072845,-34.07754517
2088,1.832253933,-2.681480169,-8.637247086,98.08421326,76.21588135,-26.06391144
2089,2.316531897,-2.881559372,-7.044848442,114.0794449,42.7380867,-8.822118759
