PacketCounter,Acc_X,Acc_Y,Acc_Z,Gyr_X,Gyr_Y,Gyr_Z
448,-2.417644739,1.021962166,-12.26762867,-198.0079498,33.79396439,67.03173828
449,-1.769078732,0.976606607,-12.78097439,-186.0566559,19.71949577,66.18630219
450,-0.397542059,-0.483182967,-13.40161133,-184.5924835,13.09106636,73.06147766
451,-1.719160795,-1.014936566,-12.10311985,-181.5393372,17.73069954,69.581604
452,-2.754332066,-0.065487295,-10.40859985,-188.7855377,26.23297119,62.54010773
453,-3.154947758,1.607351542,-10.37093639,-185.8965149,25.98013306,51.18729019
454,-2.678354025,2.685860634,-10.09646893,-178.4760895,18.72643852,33.58819962
455,-2.178250313,3.431186914,-9.839037895,-165.4574127,13.00047874,18.86661911
456,-1.546623111,4.349646091,-8.886422157,-148.4244537,8.926739693,13.00791836
457,-1.500771046,4.668750763,-8.331638336,-129.9944153,9.177838326,9.554830551
458,-1.056931496,4.424211502,-7.743279934,-111.2218094,16.76626205,9.646073341
459,-0.756733,4.325782299,-7.913067341,-92.53951263,21.19103622,7.234269142
460,-0.606445551,4.508446217,-8.588145256,-74.53353119,17.87843132,3.269515991
461,-0.140391082,4.764077663,-8.445199013,-64.38311005,9.658732414,5.500985622
462,0.130975142,4.812065601,-7.332124233,-61.68799591,6.249085903,8.819649696
463,0.646204352,4.202721596,-7.728530884,-52.85919952,4.974279404,4.947795868
464,0.787156284,2.230312347,-8.6945467,-21.90254021,2.932608128,-3.257588863
465,0.628794789,1.838209987,-8.69575882,25.96954346,2.982685804,-15.75339222
466,0.124783337,3.491273165,-8.187542915,50.74587631,-2.8619771,-27.00203323
467,-0.667992353,4.535958767,-8.445856094,56.90238953,-6.485955238,-30.39828682
468,-0.889535248,3.618720055,-9.171284676,69.46628571,-9.109446526,-28.06145477
469,-0.387511313,2.357641935,-10.10035229,85.08555603,-3.56129241,-21.23768616
470,0.360892236,2.940361261,-9.610557556,90.38809967,-6.970081329,-13.09524632
471,1.143507719,4.12642765,-9.285449028,78.85160828,-18.99324036,-7.271532059
472,1.184502244,3.928690434,-9.110560417,55.24034882,-11.07782936,-5.484451771
473,0.327974528,2.916235447,-9.56900692,35.71165085,-1.620952368,-9.604546547
474,-0.594901264,3.15417099,-9.836216927,31.88739777,-0.638495088,-11.20910168
475,-0.742968798,3.364386082,-10.11692524,33.10332108,0.583818257,-8.389480591
476,-1.075079918,2.714787483,-10.18069935,24.49413872,10.12476349,-0.644641221
477,-0.525835752,2.193355083,-10.07855797,18.78573608,22.18262863,6.459582806
478,-0.473613679,2.016576052,-9.937776566,22.57209206,27.79358292,9.543478012
479,-0.928954065,1.720241308,-10.19198799,30.62978935,22.85452461,14.60691833
480,-1.2178092,1.945818901,-10.88997746,32.70943832,16.61294174,22.72877121
481,-1.46837306,1.880936265,-10.97304058,29.20137787,14.64139366,29.49768257
482,-0.833243608,1.518301725,-10.40842915,19.40862656,20.98938751,29.84541321
483,-0.50590241,2.177602053,-10.14184284,16.11685371,24.19525528,22.71790695
484,-0.785270333,2.355578661,-10.29416752,19.13812065,21.34233475,19.04949951
485,-0.993780017,2.954975843,-10.18606186,18.32380676,12.09000015,21.43700218
486,-0.419987738,2.385624647,-10.12670231,16.7800808,2.900761843,23.80242348
487,0.040110394,2.085608006,-10.09099102,10.73735905,3.331094265,25.08468246
488,-0.22653152,2.851235151,-9.74126339,8.075125694,-1.933014035,24.0600853
489,-0.584922254,3.090368509,-10.60133266,2.073199749,-13.07194233,24.04549599
490,-0.414458811,2.639896393,-11.63046551,-6.218564034,-23.32926178,24.71508789
491,-0.328703135,1.864938021,-11.96160889,-8.091374397,-25.61682129,22.03560638
492,-0.383056849,0.926559329,-11.88218784,-9.353598595,-26.15374184,20.63013077
493,-0.496569246,0.658550918,-11.01430607,-15.12671947,-23.18694496,24.76836395
494,-1.300502658,1.694566488,-9.511459351,-21.11132622,-21.22226715,25.74191666
495,-1.610575557,3.148842335,-8.272263527,-38.11531448,-27.95827103,21.45661354
496,-1.792649508,3.194633484,-7.897234917,-61.6109581,-38.75018311,17.74836159
497,-1.628536701,2.390090704,-7.939822197,-70.98864746,-41.11319733,13.35399246
498,-0.459388465,1.464591503,-8.190924644,-65.1102066,-40.63894272,4.786960125
499,-0.668169975,0.876713872,-8.122921944,-44.52211761,-35.53459549,0.519277751
500,-0.134707153,1.776328564,-8.501194954,-29.02440071,-25.67779732,-7.343579769
501,-1.411295414,3.347222567,-8.469765663,-27.24340439,-17.6633873,-4.976816177
502,-0.850172043,3.579189062,-8.761590004,-37.80995178,-20.18719292,-11.48877716
503,-0.831497014,2.656867266,-9.169050217,-37.85467529,-11.06305599,-11.92532539
504,-0.640714407,1.28948319,-8.67317009,-22.11649513,14.06521511,-11.42915535
505,0.448093683,0.855542243,-8.014117241,-1.309798598,42.36071777,-18.4053688
506,-0.257549971,1.298661947,-7.675643921,13.68139458,56.8613205,-23.34511757
507,-2.142239809,2.209464788,-8.40015316,21.28915215,62.42163086,-28.37781906
508,-2.978732824,2.275630474,-9.57145977,38.51495743,57.67174149,-36.55196762
509,-1.90269649,1.937460899,-9.283593178,72.63345337,50.12365341,-46.78602982
510,-0.676201999,1.188943267,-9.401027679,104.7936096,49.95317459,-55.5727272
511,-1.775369644,1.458173633,-8.902007103,146.686554,58.57844162,-52.14517212
512,0.886601329,1.470380187,-7.798024178,180.0423126,59.78918076,-53.17099762
513,0.523565054,1.426309943,-8.293258667,200.1436768,46.91629028,-39.51464462
514,-1.317168474,0.701228261,-9.586263657,196.9844513,29.24925041,-34.21116638
515,-1.128352165,-0.726447999,-10.49459267,187.7992706,11.28722477,-41.36272812
516,1.150357366,-1.06464982,-11.86346531,189.3118591,-3.614867449,-48.1980629
517,1.956449032,-0.507961273,-12.53702641,183.0341492,-11.93153,-44.94258881
518,0.86513418,-0.423636615,-11.87097836,171.4891205,-13.39025688,-45.05389786
519,-0.163466185,0.115759432,-11.07559872,171.5032043,-18.53930473,-43.38954544
520,-0.665477693,0.197369397,-11.01643467,172.7628174,-26.68939972,-36.34506226
521,-0.830307782,-0.990575433,-11.0739603,152.1228485,-30.23278046,-33.09369278
522,-1.677020788,-1.71637857,-11.75723648,127.3216248,-33.83935547,-37.46817398
523,-1.106764197,-2.115375996,-11.78565121,105.2248611,-28.04404068,-43.12016296
524,0.096399836,-1.67623055,-10.21096325,92.68951416,0.184738472,-44.30955124
525,0.990225196,-1.577682972,-8.735686302,76.69020844,23.27174187,-32.18077087
526,0.451314062,-2.807041883,-8.294329643,52.87307358,13.57589817,-17.84340096
527,-1.419240236,-2.624046803,-8.76728344,34.7937851,-11.13227463,-7.674812317
528,-0.605349362,-3.048975468,-9.834611893,6.141613483,-20.11496925,0.661448896
529,0.404250145,-4.103392601,-9.577366829,-13.18355656,-21.46936035,0.373472363
530,-0.065676548,-3.627757311,-8.72187233,-33.01372147,-16.54803085,3.707827568
531,0.545455456,-2.390516996,-8.07160759,-59.07817459,-18.20506096,11.03862381
532,0.604333878,-2.74934864,-8.281650543,-83.47192383,-23.81672859,18.97623444
533,-0.635631621,-3.547703981,-9.164814949,-95.78778839,-19.19309998,21.61112022
534,-0.613744676,-3.579395294,-10.02647305,-94.09159851,-5.614581585,18.03344917
535,0.270901799,-3.279153347,-10.5506258,-80.0606308,0.042646155,17.35778999
536,0.407226443,-2.21913743,-11.0504961,-70.28038788,-2.491654634,13.1262064
537,0.338913351,-0.826575458,-11.3933754,-71.35761261,-5.182436466,15.53699303
538,-0.290303618,-0.676933169,-11.29467869,-70.87120819,-8.324383736,19.69179153
539,-1.217844963,-1.537799358,-11.01927662,-65.25293732,-2.706751108,23.57686806
540,-1.052231431,-2.585748911,-11.09465885,-50.71140671,1.672156572,25.47050095
541,-1.211416006,-2.956198692,-10.7031126,-34.551651,3.312227726,21.09119415
542,-1.183054328,-2.646037817,-10.0176115,-29.00319672,1.399394155,18.64705849
543,-1.236163855,-2.080842733,-10.19834709,-35.6760788,-3.58553648,19.68907166
544,-1.546112776,-1.033035398,-10.6348238,-44.70272827,-7.714486122,16.65384483
545,-1.929288149,-0.089374639,-10.83451366,-58.68479538,5.524755955,12.85571766
546,-2.190543175,-0.542679965,-11.08612919,-90.41827393,17.21677017,2.698391199
547,-1.806384802,0.165932044,-11.33631325,-66.11541748,11.1674366,-15.60595417
548,-1.336654544,-0.966791987,-11.80690289,-23.46142006,10.36762524,-28.0274086
549,-1.155543804,-1.56647706,-11.96453094,8.085496902,13.9145031,-34.75475311
550,-1.955052495,-0.699816704,-10.24868679,3.944799662,18.67529297,-34.07494354
551,-2.339075565,1.840060592,-9.203767776,-12.29583073,18.95753479,-35.51050568
552,-1.13416779,2.694574594,-9.322341919,-15.32284641,14.74555016,-42.19831848
553,-0.389293224,-0.002949968,-9.296964645,-6.96372366,10.09157467,-42.38731384
554,-0.481065392,-3.06618619,-9.101765633,24.99675941,3.972740412,-40.51931381
555,-0.683365405,-3.278899193,-9.444291115,58.93566132,-4.28161478,-38.24223709
556,-0.638894618,-1.438819885,-10.28125763,77.09214783,-7.382517815,-35.12765121
557,-0.193183064,-0.799015701,-10.72982121,85.78710175,-7.894421577,-32.32382202
558,0.444103599,-1.100894809,-10.87962246,90.58686066,-10.41270638,-26.4535141
559,1.255064845,-2.343834162,-10.03205013,87.35723877,-18.76377487,-17.24539757
560,0.775470495,-2.531415462,-8.651743889,88.03030396,-28.78286743,-17.10515022
561,1.210373163,-1.118495703,-7.612071514,88.99372101,-38.39748001,-10.65053272
562,0.291116238,0.678151488,-7.303222656,73.35475159,-45.25733185,-1.443511724
563,-1.196456552,1.120001793,-7.825942039,54.89264297,-63.20705795,3.882725239
564,-2.527812719,-0.48673898,-9.706323624,32.82040024,-57.48231125,11.5770607
565,-2.393243074,-1.348415136,-10.17285538,3.70650506,-39.02754593,24.1093502
566,-1.484293222,-0.035281006,-8.918581963,-28.18921471,-19.41131783,31.14691925
567,-1.67418313,0.134713739,-8.107616425,-48.72727203,-0.202503011,35.76922607
568,-2.331043243,0.63336885,-9.198308945,-65.97266388,2.995717287,46.69452286
569,-1.950307012,0.908095896,-10.01061058,-102.5087814,2.409004211,57.27787399
570,-2.03870821,-0.007334426,-9.936096191,-140.3617554,12.90245342,64.60714722
571,-1.459615827,-1.688012242,-9.973848343,-146.4845276,24.79561806,69.13098145
572,-1.22986877,-2.134252548,-9.846025467,-151.694046,39.89526749,63.06106186
573,-1.481526613,-0.083021238,-10.81576443,-157.9355316,53.15204239,55.25823975
574,-0.862627625,3.195131063,-10.88147068,-169.7480774,57.85072708,53.59628296
575,-0.271460593,3.480248451,-11.75008678,-188.9462738,52.98516083,58.79800415
576,-0.67026341,2.680519581,-11.99664497,-190.9348297,42.26688004,60.55792618
577,-0.626652241,2.272609711,-11.31233788,-193.5185242,32.29874039,57.973526
578,-0.543518186,2.264264584,-11.03565598,-190.6994781,21.73394585,56.77771759
579,-1.276117682,2.29311204,-10.74083328,-185.5357971,8.244301796,53.67733765
580,-1.357553244,2.986417294,-9.902783394,-172.7528229,3.255904436,42.82382584
581,-0.325498223,3.314763546,-8.563124657,-150.7877502,3.279828548,33.25629044
582,0.064782225,3.255196571,-7.909770489,-122.1584015,-1.594433308,25.90807915
583,-0.512696743,3.928945541,-8.22855854,-96.82004547,-5.473362923,23.44668579
584,-0.930949628,5.274179935,-8.106225014,-77.85591125,4.734131336,23.38017464
585,-0.827182651,5.14482832,-8.646274567,-72.23131561,10.3921299,23.16390991
586,0.084288791,3.801367283,-8.456633568,-61.68773651,12.00726795,22.7447052
587,1.184258103,3.628275871,-7.037637711,-32.96222305,6.219582081,5.873079777
588,1.686398625,4.324494839,-5.769521713,1.188161254,-11.9167738,-9.935488701
589,1.046460032,2.579791784,-5.968749523,21.44931793,-10.63304234,-10.95573711
590,-0.377776057,1.968610168,-6.752694607,56.19808197,1.335718274,-15.01874447
591,-0.107039325,2.910428286,-7.190196514,95.25377655,-3.082548618,-23.5980587
592,-0.02294815,3.682471275,-9.237322807,114.1610336,-20.95571327,-27.65241432
593,0.492187142,4.250172615,-11.13512993,117.5705719,-20.94768143,-20.29611206
594,0.574141264,5.172166824,-11.92325592,105.1867676,-3.45869112,-14.03435326
595,0.908530176,5.461808681,-10.86344528,87.65090942,1.502495289,-13.56604385
596,0.380284727,4.862978458,-9.825641632,73.69734955,1.959322333,-20.46294212
597,-0.508520246,4.54454422,-9.364610672,58.01579666,-8.039476395,-26.92585373
598,-1.087765574,4.51497221,-10.12964249,45.0627327,-14.59897995,-24.12063599
599,-1.072023869,4.34359026,-11.79803658,51.22473907,-13.02585506,-14.45089626
600,-1.547574282,3.826527596,-11.72402668,62.61993408,-12.87759018,-4.679142475
601,-1.351089001,3.199491739,-11.78505039,61.57353592,-10.2453022,0.295011073
602,-1.294862509,3.430829048,-11.33325958,54.60335541,-11.39669228,0.776803195
603,-0.749123454,4.057343006,-10.58795929,43.30683899,-9.406168938,-2.683646679
604,-0.473401546,4.612469196,-9.846569061,29.23681641,-9.879870415,-0.439560205
605,-0.557933211,3.481661797,-9.539072037,15.00946903,-9.227541924,5.290155411
606,-1.248187661,1.295847893,-9.777989388,15.5093565,-2.709590197,12.4756937
607,-1.620337009,0.112458505,-9.265006065,35.89057159,1.157392263,10.14365101
608,-1.337773323,-0.38776809,-9.46797657,54.36418915,-0.792958319,5.84402132
609,-0.30043596,-0.372935653,-9.432790756,55.1906395,-3.50352931,10.07122898
610,0.312246412,1.549996018,-8.943067551,47.04784012,-11.92102051,14.68320084
611,-0.264501989,2.623095751,-9.119522095,24.08490181,-18.95427322,20.88250542
612,-1.894310832,3.216394663,-9.386187553,5.329076767,-23.8795414,23.38717842
613,-1.480639815,2.159110546,-9.731282234,-2.941993237,-23.13249779,20.88494301
614,-0.405442506,0.443072826,-9.997144699,-1.674286485,-17.81841278,16.87935448
615,-0.388633102,-0.114573181,-10.17030334,3.113407135,-13.40060139,14.02695465
616,-0.545219302,1.080899596,-10.13381004,3.012506247,-15.62350845,11.59562874
617,-0.383871794,2.452476025,-9.679162025,-5.703594208,-22.13375092,6.043213367
618,-0.178935528,2.547847986,-9.532024384,-25.50872993,-29.80771446,0.672106445
619,-0.773235083,1.858104825,-9.867372513,-41.23794556,-33.6987381,2.193864584
620,-0.633198082,2.154332161,-9.827078819,-45.93845749,-35.96401215,-2.197461605
621,-1.558080316,1.768892884,-9.727380753,-50.23963547,-25.73365402,1.09005022
622,-2.060570478,0.264847636,-10.28434372,-40.13313293,-0.112818174,4.000277996
623,-2.061789036,-1.523264527,-9.924710274,-19.30641937,17.5016861,-0.92446059
624,-2.133000374,-1.078102708,-8.44157505,16.45464134,14.2215414,-6.819630623
625,-1.015095949,-0.023565959,-7.516565323,46.47068405,8.729801178,-9.208345413
626,-2.160829782,0.775937557,-7.430523872,64.70734406,12.90832138,-6.424257278
627,-2.466089487,0.441231728,-10.22318459,104.6845169,34.64065552,-24.08630753
628,-1.448530197,-0.774275243,-10.93640041,142.753067,46.51156616,-43.29413986
629,-1.247001648,-0.714703679,-10.58099079,160.2613373,50.84348297,-51.7978363
630,-0.02114746,-0.757608294,-10.63518429,170.4489288,48.53212738,-56.06532669
631,0.188487843,-0.684703112,-9.563127518,177.5168304,47.10551453,-51.51802826
632,-0.664999127,-0.049379826,-10.15448189,187.0794678,58.08465958,-50.6295166
633,-1.857353449,2.116103411,-12.2930975,194.620636,65.37060547,-57.78150177
634,-0.762012184,2.356712818,-12.40834904,159.847702,47.93630981,-54.43031311
635,1.001067996,0.350866377,-12.53918839,134.8772278,31.75742912,-41.77826691
636,1.844017982,-1.70938468,-12.34864521,128.2369843,20.4472599,-33.735466
637,0.553235471,-2.444880724,-11.654356,117.0758743,6.915120602,-30.26778603
638,-1.152402043,-2.375225782,-11.08733654,119.7966843,0.667438745,-29.33516502
639,-1.183945775,-1.616999984,-10.56558704,131.0870361,3.96103549,-25.67668724
640,-0.821223974,-1.820845008,-9.578362465,131.4171753,0.787037015,-13.34323788
641,-0.395228028,-2.956265688,-9.007015228,106.9316635,-8.580787659,-1.107173085
642,-0.283288836,-4.400459766,-8.612361908,82.89455414,-15.41814995,2.097553253
643,-0.329629511,-4.982702732,-7.537516117,72.91921234,-17.1567173,-2.139183044
644,-0.060803037,-4.670273304,-6.389167786,60.89303589,-11.28802109,-2.254235983
645,-0.544466019,-4.604855061,-7.110243797,44.4421463,-15.22953892,0.944770336
646,-0.34441036,-4.498125553,-9.158734322,22.47871399,-17.59578896,1.140408516
647,0.079030342,-4.057465553,-8.078577042,2.357033968,1.219702363,-2.605541229
648,1.446600914,-2.28377223,-6.843870163,-19.53331184,11.1764164,3.234915495
649,1.313819528,-0.455869913,-6.479735374,-63.04182816,16.21941566,12.34560013
650,0.228368759,-1.165657163,-7.311016083,-92.40010834,26.17493439,18.26295471
651,-0.515776217,-2.404454947,-9.041897774,-101.8784485,26.23819542,16.76293755
652,0.074397065,-3.935215712,-10.63678837,-106.2399597,28.62928772,21.3068676
653,0.921346784,-4.16257,-11.53902817,-110.3437271,13.44004059,23.2173481
654,1.08189249,-3.102035522,-11.52467537,-104.877388,-4.966798782,22.46937943
655,0.989017963,-2.116054535,-11.08281612,-99.3734436,-17.68814087,23.75880432
656,0.200070098,-2.727493286,-11.14660168,-97.75447083,-17.16013336,24.17580605
657,-0.312867701,-3.557953596,-10.69048882,-83.89290619,-13.57373238,20.50341606
658,-0.50883311,-3.810675621,-10.16413498,-61.33892441,-6.8482337,13.48422432
659,-0.294374794,-2.735255003,-10.0876236,-37.85396957,-5.670585155,7.80676651
660,-0.188818514,-1.360555887,-10.00937653,-35.64422226,-0.081506379,3.917710304
661,-0.421355367,-0.301795065,-10.07393932,-41.94415283,14.08225346,-1.783981681
662,-0.96451664,-0.472302198,-9.81920433,-53.26410294,29.69028664,-8.042884827
663,-1.633999586,-1.675988555,-9.980257988,-62.99752045,27.93909073,-14.85054588
664,-0.63147217,-1.716816187,-10.78573799,-49.57181549,17.74209785,-21.29699707
665,0.605579615,-1.665179849,-10.78553391,-23.80278206,15.92826748,-23.05194092
666,1.981588006,-1.474828959,-11.09332371,-5.443243027,16.27252769,-19.09088516
667,0.580635369,-0.865008295,-9.940142632,-1.771786809,32.52847672,-19.7148571
668,-0.004958786,-0.306205094,-10.0163393,6.970115185,45.73858261,-23.7532444
669,0.652324319,-0.337699056,-9.255773544,24.45072556,39.37005615,-13.93687439
670,1.147523642,-0.62280196,-9.690407753,26.58988571,19.04210281,-3.825392962
671,0.721906424,-1.021127462,-9.990624428,21.24007225,-6.169719219,-0.148803636
672,0.678911567,-1.510463953,-10.39045334,17.81776619,-21.81105804,-3.148468494
673,1.354215145,-1.878498197,-10.49243259,19.93506813,-31.86906624,-8.065281868
674,0.996287167,-1.621664166,-9.98866272,26.33998489,-37.29571915,-11.63229656
675,-0.239638314,-0.932274759,-8.895956993,32.48783112,-49.0616188,-16.29435349
676,-0.64288795,0.53087914,-8.774159431,36.29946136,-53.85367584,-17.81498718
677,-1.162697673,0.258558899,-9.067646027,34.35263824,-43.61254883,-10.99401093
678,0.252872795,-0.191106603,-9.273148537,16.35623932,-43.47867203,2.326393366
679,-0.530182421,-0.721563756,-10.0346117,-3.721289873,-32.83428955,0.480291158
680,-1.095592856,-1.148779869,-9.994727135,-14.41835022,-21.08706665,-0.245120496
681,-0.690182626,-0.96779412,-9.530520439,-23.30826759,-6.779549599,6.011928082
682,-1.062609673,0.486280859,-9.331272125,-35.25943375,1.999414325,13.55611515
683,-0.909869671,1.776564717,-9.788714409,-62.27541733,5.329714298,21.73034286
684,-0.820247233,2.019347906,-9.931172371,-93.87169647,7.268397808,25.2664547
685,-0.281609446,0.655406177,-10.47511482,-118.7056122,7.962441444,32.95636368
686,-0.577786505,0.284741223,-9.814855576,-127.8252869,8.102905273,36.79420471
687,-0.565773904,-0.024639592,-10.8741045,-132.319519,12.99156857,43.73851013
688,-0.354527593,0.677457452,-11.65254498,-134.1929016,17.66931152,46.27235413
689,-0.435839087,2.536886454,-11.96654224,-149.5147247,15.58577633,45.7301178
690,-0.40411374,2.454555511,-12.583992,-158.8748016,8.787459373,48.05353928
691,-0.689062715,1.248213887,-12.190835,-167.2234039,11.54449368,46.8518486
692,-1.239909172,0.715152025,-11.30116653,-173.8960724,7.210018635,46.62742233
693,-1.463906169,0.812374473,-10.44882011,-169.5994263,-1.559962988,43.95760345
694,-0.731472731,1.444092989,-9.864230156,-156.1423645,-8.564768791,33.69203568
695,0.321198285,2.081165314,-9.407639503,-135.9753723,-10.88364983,20.58640862
696,0.232546464,2.479157448,-8.636276245,-111.526268,-13.58827114,13.76888084
697,0.138773531,2.812702894,-7.522837162,-84.28279877,-4.987912178,9.31523037
698,-0.396701306,3.833814859,-6.234698772,-59.71560669,3.114364147,3.351400137
699,-0.02970254,4.361271858,-7.881015778,-35.27680206,5.423692703,-1.263294458
700,0.387155682,3.194297791,-8.812556267,-19.20112038,8.884161949,0.464807123
701,1.009554982,1.002682209,-8.729543686,-2.081461668,11.90952587,0.191903219
702,1.15388906,0.980768085,-7.721417904,24.1544323,22.33666611,-6.501367092
703,1.205890417,1.653104067,-6.725455284,45.86182785,32.71252441,-18.99738693
704,1.225494623,3.390523434,-7.506216049,71.13639069,35.59923553,-27.87569618
705,0.124614462,3.996780634,-8.871418953,84.11042023,30.31796074,-26.15341759
706,-0.423235536,3.994675636,-9.266620636,78.70246887,23.5685997,-18.95076561
707,1.106893778,3.840910196,-10.34673977,76.39962769,9.215080261,-11.00077915
708,2.435778618,3.090674162,-10.9686451,82.26503754,-11.9563961,-6.931459427
709,1.957582235,2.810192585,-11.05020714,90.62438202,-25.10407066,-9.095873833
710,0.558361828,3.01677084,-11.02662945,97.18241119,-28.60276031,-12.05806351
711,-0.288206547,3.432138681,-10.92774868,90.90393829,-22.31543541,-15.30924225
712,-0.278773725,3.568077087,-11.25912857,73.74227142,-19.40670967,-16.54275131
713,-0.362168729,3.622227907,-10.96506786,66.53174591,-15.4919281,-17.90089417
714,-1.338997841,2.217535973,-10.86840057,71.88421631,-4.945987225,-8.433630943
715,-0.952053964,1.987703323,-11.18988419,77.45431519,2.474674702,-0.481829882
716,0.04048954,0.629736483,-10.82422543,70.26681519,9.762749672,5.567915916
717,-0.06725423,0.10979902,-10.9203968,65.92639923,19.81344414,4.282310009
718,-0.670357168,0.025304064,-11.16722584,71.15454865,19.18065453,-0.808986187
719,-0.632006288,1.059115887,-11.42067909,80.05073547,14.627038,-0.455718189
720,-0.24833937,0.367415011,-11.99119854,84.59169006,9.689790726,8.64298439
721,0.324806333,0.032582864,-11.19178963,97.06983185,10.21526146,17.3567276
722,0.665981233,0.361778259,-10.11522388,94.31448364,16.83134079,20.04919815
723,0.390762568,1.100049853,-9.699286461,80.20101166,18.57037354,16.48535728
724,0.027511694,1.763646007,-9.322861671,56.24362564,14.42768669,15.69975853
725,0.063882478,1.007327676,-8.94120121,27.42280579,8.049744606,17.66133118
726,-0.462919116,0.139117539,-8.862214088,8.874825478,2.035431385,16.96558189
727,-0.219759375,-0.730929971,-9.04594326,-5.636419773,0.920162797,16.12229156
728,0.035767205,-1.005835533,-8.918347359,-16.99785233,-1.16432333,14.67050552
729,-0.080386929,-0.899066567,-9.110354424,-26.03637314,-5.061963558,14.20806313
730,-0.25197351,-0.296391696,-9.802744865,-31.628479,-14.51024914,14.28459358
731,0.096746765,0.240774512,-10.4566803,-36.67579651,-24.52778435,10.27529907
732,0.217197448,-0.94683814,-9.518527031,-40.20609665,-31.01310349,3.159944057
733,0.396401137,-2.382948399,-8.802931786,-26.49750137,-40.26011276,-5.661280155
734,-0.203266174,-1.80224669,-9.547197342,3.513852119,-51.15621185,-9.557501793
735,-1.218899965,-0.120366737,-10.33650208,25.63323975,-49.10044479,-9.278436661
736,-0.978049099,0.500298798,-10.3441391,34.74677277,-21.87167168,-9.129390717
737,-0.1459921,-0.247276187,-9.210406303,49.98949432,16.72724915,-11.11002636
738,-0.017028302,-1.366758347,-8.640979767,68.46360779,37.36201859,-14.69322395
739,-0.652474642,-2.137918234,-9.20464325,85.72999573,47.93878937,-18.66407585
740,-1.292845964,-2.937953949,-11.29349422,116.4398804,60.89313126,-22.6049118
741,-1.211890459,-3.534840107,-13.04033661,128.5048981,59.69057465,-26.53642654
742,-1.170411706,-2.876812935,-11.8186264,129.5165558,49.73228455,-38.23892212
743,0.716865063,-2.167602539,-10.67073917,129.7167969,38.37733841,-43.26669312
744,1.379482508,-1.630772829,-8.930430412,136.0753937,35.10560226,-34.66051865
745,1.064579606,-1.668730974,-8.232140541,146.8111267,27.66195679,-25.6953125
746,0.187905878,-2.610145569,-9.504101753,151.7527161,10.96943378,-20.66246223
747,0.211559013,-3.328091621,-10.44746017,146.4313507,-1.155548334,-21.1068821
748,0.743485332,-3.651652813,-10.777565,127.4030304,-9.8396101,-25.87960052
749,1.950768709,-3.892225027,-10.82535076,93.74054718,-24.43551254,-28.33924675
750,2.558691502,-4.042841911,-10.35952854,76.99673462,-41.45484161,-30.71541977
751,2.607103825,-3.346881151,-10.06494713,74.76243591,-55.62252808,-29.14250183
752,1.59000349,-2.555465698,-9.432180405,75.8699646,-61.37430573,-18.76739502
753,0.588341594,-2.653935909,-8.214767456,62.73529434,-55.65960693,-5.385313034
754,0.08153417,-4.552474022,-7.501758575,35.98833466,-47.70052338,5.3877635
755,0.080308586,-6.600036621,-7.403420925,13.99037266,-45.79809952,7.437155724
756,-0.012779064,-6.746887684,-7.231721401,6.530243397,-42.14289856,1.571938396
757,-0.192174941,-5.883577347,-6.918704987,-2.073543072,-36.33362579,-0.958194673
758,-0.519225359,-4.610971928,-8.034380913,-10.88876724,-37.99756241,-2.308939695
759,-0.112474352,-3.396216631,-8.049692154,-26.48595238,-35.04098511,-7.713862896
760,0.517025769,-2.456434011,-7.975266457,-47.50506973,-29.65381241,-11.21500206
761,1.154877663,-1.887284756,-7.86037159,-73.33547211,-23.06166458,-4.90595293
762,0.512290597,-1.516293406,-8.185131073,-92.83254242,-14.31048489,6.809809685
763,-0.029929537,-2.625513792,-8.902341843,-107.2906418,0.493039131,15.3069582
764,-0.083276011,-4.343090057,-9.085216522,-103.5614166,6.234066486,16.61501503
765,0.155738264,-4.402347088,-9.401102066,-96.83759308,-0.070302866,17.36939621
766,0.065774962,-3.512993574,-9.932228088,-93.89221191,-12.34083748,20.36915207
767,-0.30404079,-2.403719664,-10.42079639,-85.72969818,-18.53767967,21.89239311
768,-0.844114244,-2.072208166,-10.71321201,-82.69290161,-19.96054077,23.37048721
769,-1.03185451,-2.52350378,-11.18618965,-81.3088913,-20.14175606,27.03573608
770,-1.38274467,-3.224692583,-11.62616253,-72.91135406,-14.60839653,29.07964706
771,-1.052628994,-3.615225315,-11.69223404,-59.41821289,-3.464686155,23.54536247
772,-0.710543036,-3.571515799,-10.98034954,-49.61885071,5.903630257,14.95698738
773,-0.736634254,-2.949460983,-10.97453785,-37.18027878,7.090568066,11.00866604
774,-1.424161553,-0.737024963,-10.73365784,-29.54908562,11.86061573,1.966127396
775,-2.007773638,0.071023621,-10.54012489,-35.84514618,27.64692879,-3.65974164
776,-2.034832001,-0.826323509,-10.21263981,-42.13781357,32.3502655,-6.180745602
777,-1.56698072,-1.936446786,-9.534240723,-41.34172821,25.74909973,-3.712060928
778,-1.426345348,-2.403896809,-9.789525032,-31.62122917,10.16702747,-5.919496536
779,-1.492749572,-1.823497176,-10.7496748,-17.46721649,-2.418194771,-12.20489979
780,-1.349620342,-1.097460866,-10.68887615,-10.91021252,4.238062859,-16.21286774
781,-0.349711329,-0.55442071,-9.655508995,-16.49017906,21.13981247,-13.36684132
782,-0.469354689,-1.199335098,-9.164823532,-22.99580002,28.29725266,-13.11154842
783,-0.838027596,-2.798672199,-9.129926682,-10.92648506,23.20344353,-18.07680702
784,0.01088639,-3.121970892,-9.060012817,16.58704185,6.678535938,-20.15085793
785,-0.409766972,-2.184788227,-9.46462059,41.88227463,-15.51613045,-22.82430458
786,-1.158433557,-0.740772307,-9.918106079,54.23160172,-26.95214653,-25.14935684
787,-0.108179688,-0.126477286,-10.01771259,48.110672,-34.81238937,-15.88181686
788,0.296140969,-0.598492324,-9.824522972,32.66162109,-39.31794357,-7.170657158
789,0.079951793,-0.9917835,-9.267948151,22.07813072,-41.96788025,-2.837596178
790,-0.144779339,-1.417491198,-8.853161812,12.83685017,-42.05034637,1.028805017
791,-0.334829241,-0.839323878,-8.49773407,8.945715904,-42.02641678,0.233794197
792,0.212082192,-0.533173561,-8.372215271,-0.170075879,-43.17349625,5.96502018
793,-0.927457035,-1.080713868,-8.897248268,-16.92677116,-41.65842438,8.860664368
794,-1.825978756,-1.430258989,-9.891533852,-23.19120789,-28.90057564,10.24524784
795,-2.132526159,-1.585299969,-10.13439083,-20.76974106,-11.97182178,10.28360081
796,-0.955052376,-0.46447745,-9.266238213,-30.69592857,1.517429948,10.23423195
797,-0.131197438,0.220689416,-9.07952404,-52.89617157,23.43209839,10.19667816
798,-1.336571217,0.865463614,-8.392705917,-82.31201935,44.99893188,14.20840549
799,-1.422135592,2.340430498,-8.349088669,-122.5834656,44.38647079,25.58104515
800,-1.42492485,3.498639584,-9.914411545,-132.0462341,41.48003387,32.58372116
801,-1.601296067,2.691740274,-11.10346127,-147.4381714,43.99518204,44.89086914
802,-1.400514483,2.119488478,-11.04166508,-156.3163147,46.42760849,49.09354782
803,-0.729275346,2.304567814,-11.08058453,-161.2656097,50.39390945,49.36433411
804,-0.101158231,2.330328941,-10.99647331,-162.4467316,51.7191124,45.45811081
805,0.561214745,2.38485527,-11.48529911,-157.3570862,41.66561508,43.19526672
806,0.291690946,2.227360249,-11.95650101,-148.0705872,30.54285431,42.64990234
807,-0.119031534,2.623060226,-11.39924812,-150.0264587,22.96240616,43.47759628
808,-0.648154199,2.740041018,-10.73686981,-156.5565643,10.64728069,42.19432449
809,-0.775516152,3.297477484,-10.40849113,-159.3619232,-2.781129599,37.35669327
810,-0.294883788,3.935578823,-10.0434885,-153.5301056,-10.98430824,34.03973007
811,0.146493837,3.951534748,-9.573029518,-138.6927338,-14.97449493,29.43355942
812,0.271934658,4.112491608,-8.945663452,-115.3398895,-16.59058762,23.64670753
813,0.072326757,4.115846157,-8.405282021,-94.48284912,-16.9267807,18.93532753
814,-0.149769127,3.724018335,-8.256091118,-65.20420837,-3.208790064,12.78576469
815,0.004261608,3.896591902,-7.319686413,-29.77374458,7.683041573,5.235202312
816,0.116232224,4.154178143,-6.921275139,-2.350701332,-3.237681866,1.690976024
817,0.369095623,3.50315547,-7.556042671,21.13940239,-15.54266071,0.181543246
818,-0.082918175,3.515320063,-7.915854931,40.86618805,-19.38904762,-6.074011803
819,0.915495872,2.694594383,-7.391994476,51.77062988,-15.83004284,-13.08196259
820,0.944516897,2.004979134,-6.958287716,59.26950073,-2.39949894,-11.17456055
821,0.180314898,1.431940436,-8.122668266,74.86677551,25.8828125,-14.55433273
822,0.19679898,3.628237724,-8.752595901,97.08333588,22.83360863,-23.60094643
823,0.738999009,4.830257416,-10.45730305,118.943634,1.605065227,-25.67733574
824,0.376783699,5.317986488,-11.32957935,128.7064972,-12.11590004,-19.41789246
825,0.568686485,3.698018789,-11.39669132,123.8989334,-22.75625801,-18.9389801
826,-0.315179586,2.654316664,-10.8810997,120.5604782,-29.60706711,-22.70828056
827,-0.698334277,2.361476421,-11.06567001,116.9988861,-31.14201164,-25.29379272
828,-0.650084794,2.982426882,-11.31738091,102.8819962,-22.09457207,-22.53062248
829,-0.234893411,3.811115265,-11.56064129,78.88586426,-12.87223911,-15.1303978
830,0.04695867,4.23942852,-10.88650417,58.86260605,-8.04474926,-9.365842819
831,-0.454064548,3.778106213,-10.8240881,46.95858765,-9.148440361,-10.42022324
832,-0.781906724,2.254792929,-11.01628304,45.53149033,-4.28480196,-13.84352398
833,-1.010910034,1.201992393,-11.35804844,52.37794876,-6.575942039,-9.943430901
834,-0.603091121,0.946658373,-10.90236568,51.91495132,-4.14533329,-2.864494085
835,-0.529108107,1.143308043,-9.824645042,50.5463829,10.51175785,7.642980099
836,-0.391823143,0.432864934,-9.629528999,45.442173,16.94779968,17.10863495
837,-0.24237895,0.400429547,-9.74419117,42.43437958,20.81219101,17.59043121
838,-0.431942731,-0.341253668,-10.00290585,37.97309494,21.93374062,13.63184643
839,-0.10045848,0.339080304,-9.665234566,41.28026199,21.37701416,7.317848682
840,0.295674652,1.556739569,-9.468219757,27.95354843,19.59773064,7.886401176
841,0.180748761,2.355150938,-9.264621735,4.569149017,17.47524834,16.73115921
842,-0.238529488,1.903082371,-9.392595291,-20.66420746,20.17823601,25.47258949
843,-0.529305756,0.356286526,-8.918114662,-31.15661812,22.60108185,27.98742485
844,0.002186822,-0.506216466,-8.85509491,-31.91466713,20.83680916,24.00645447
845,0.299976408,-0.399027705,-9.860478401,-35.16708374,21.29663849,18.39779854
846,0.35319075,1.001463652,-10.79371643,-41.47109604,24.10678864,9.845310211
847,1.161099195,1.435385704,-11.66129398,-49.54750061,13.26041985,0.256052524
848,1.364878535,1.927418113,-11.46655941,-54.95970917,8.43450737,-1.782323837
849,2.07149148,3.147621632,-11.1102047,-62.9015274,18.16983414,-5.896381855
850,0.873847127,1.247958779,-10.5749855,-65.71669006,33.36102295,-3.317618847
851,-0.870880961,-0.426470518,-9.573432922,-54.20066833,35.60447693,6.196700573
852,-2.499841213,-1.194091201,-8.717557907,-22.82270622,14.72961044,17.58835793
853,-2.201662779,-1.435938835,-8.091534615,10.3263092,-9.754408836,11.4708004
854,-0.900669873,-0.683115005,-7.458337784,43.17697144,-23.67968941,-1.222190857
855,-0.804341495,0.552573204,-7.299432278,61.24545288,-25.13710976,-12.18537807
856,-0.943638265,1.343547702,-7.960514545,72.56904602,-29.76474571,-24.10180855
857,-0.455252558,1.022665501,-8.872382164,95.80053711,-32.98284912,-35.4176445
858,0.50600338,1.122012258,-9.14269352,170.7206116,4.818342686,-45.64164734
859,0.918754339,0.109518707,-10.33709526,190.9076385,28.56499672,-44.99115372
860,1.438363552,-0.794845343,-10.55773735,175.1185455,48.02928925,-38.58023453
861,1.736680269,-2.483199596,-9.532135963,169.105072,47.06301117,-35.75859833
862,0.410976708,-1.532136083,-11.26751137,168.2400513,25.24916458,-40.9945755
863,0.238374546,-0.443774641,-12.99793911,146.3432922,1.377926111,-50.41872406
864,0.991643488,-0.76726234,-13.2914238,137.7093964,-12.35295391,-58.20850372
865,1.517378449,-2.096627235,-12.7044611,125.5892029,-18.55772209,-58.04430008
866,1.140391827,-2.480898619,-11.26840401,137.8563385,-29.31307602,-49.61645126
867,0.217471734,-2.793483019,-10.67861176,146.0467682,-37.00623322,-38.19581604
868,-0.317984104,-2.674726248,-10.56359673,148.9259033,-45.85027313,-30.26947212
869,-0.24764204,-2.061943293,-9.713726997,134.112381,-51.84734726,-23.65668869
870,0.09160386,-2.668745995,-8.16993618,99.08467102,-48.7949295,-15.22594643
871,0.37609446,-4.472658634,-7.364131927,59.20628738,-43.19408035,-8.893521309
872,0.648813486,-4.733850479,-6.871043205,43.59285736,-46.92525482,-9.240782738
873,0.212670654,-4.318674088,-7.264043808,27.32798004,-47.3783493,-10.11907768
874,-0.84090209,-3.010271549,-9.295928955,13.34487152,-47.36935425,-6.173438072
875,-0.730215073,-2.376204967,-10.55088902,-2.637516737,-42.33164597,-5.442663193
876,-0.176438332,-2.509023428,-9.872756958,-16.76366615,-21.11099815,-3.255594254
877,1.644802094,-1.751851797,-8.64714241,-30.06264687,-5.607479095,8.246026039
878,1.591011763,-1.87811923,-7.852919579,-62.14448929,-0.261029571,26.17698288
879,-0.035878688,-3.945616961,-8.450872421,-86.93466949,5.945135117,34.58924103
880,-0.797774494,-4.528466225,-9.827729225,-85.35018921,7.783207417,29.7759819
881,-0.481517315,-3.817682981,-10.95127392,-85.94051361,14.11086655,19.08966446
882,-0.480819464,-2.772160769,-11.39127254,-82.99950409,9.94677639,12.36208916
883,-0.383369684,-2.403177261,-11.17722034,-81.65419006,5.411030293,10.73027611
884,0.105084918,-3.063154697,-11.03249359,-75.54516602,-7.888733864,17.75527
885,-0.713618517,-3.438489199,-11.02071095,-58.64665604,-21.82852554,22.42491913
886,-1.18716228,-3.369935751,-10.52647209,-37.89821243,-26.60808182,22.03611565
887,-0.678914368,-2.957577467,-9.821326256,-31.29944801,-21.3100853,19.9064045
888,-0.477327675,-2.475306988,-9.413589478,-36.28009415,-13.92334747,15.13594151
889,-0.841972589,-2.014573097,-9.212993622,-45.89208603,-11.06383801,12.34197998
890,-1.224381089,-1.866698146,-9.655170441,-51.86161423,-15.73634815,10.12704945
891,-1.679205179,-1.431639314,-10.21042252,-58.88617706,-17.19079018,6.63598156
892,-1.933224797,-0.840653598,-10.63519573,-64.69086456,-12.69536686,0.777306139
893,-1.672366858,-0.313692451,-10.02079868,-66.53395081,-2.97428894,-2.476383209
894,-1.402332902,-0.566127181,-9.627494812,-68.59716034,3.773633003,-1.706698537
895,-1.075779438,-1.365977049,-10.21438313,-59.04519653,1.22948885,1.107429981
896,-1.415974617,-1.431578636,-10.50231743,-42.23007584,0.549024403,-0.560121179
897,-1.120963097,-0.584209323,-10.08140564,-29.57390594,4.704966068,-4.842205048
898,-0.515200496,-0.138787374,-9.215100288,-29.4890995,18.61054993,-3.709625244
899,-0.695990086,-1.253543854,-8.211735725,-35.11036301,21.88029099,0.992792666
900,-0.740857124,-1.798344493,-8.667611122,-24.54568672,8.164053917,-1.62096107
901,-1.081792831,-1.457126856,-9.562381744,2.157524824,-8.824570656,-6.467868328
902,-1.185850024,-0.902703941,-10.13121891,25.75205231,-21.75288773,-11.89301586
903,-1.044494867,0.066063009,-10.3081274,35.54452133,-28.83787537,-15.76969433
904,-0.730490386,0.641355574,-10.17733765,32.53923798,-32.13720703,-12.48522186
905,-0.314488739,0.552995324,-10.08754253,24.54560661,-30.22410583,-5.76721096
906,-0.990509689,0.061401904,-9.599081039,17.46532631,-24.4348259,-2.739869118
907,-1.817533374,-0.276652902,-9.282439232,17.44564247,-17.58211517,-6.046640396
908,-1.113367558,-0.560282648,-8.879784584,4.534414291,-18.40394402,-2.78348279
909,-1.593871832,-0.714580119,-8.515141487,-11.11375523,-15.57332802,-3.515059471
910,-1.44895339,-0.845624626,-8.267254829,-10.70722771,-14.03411484,-3.634721041
911,-1.597574949,-0.764710665,-8.336628914,-4.51074028,-17.63540459,-2.117961168
912,-1.945011854,-0.608608186,-9.802259445,-5.319428921,-23.43824768,-0.163979217
913,-2.00914073,0.033173211,-11.98360062,-14.88151741,-10.71916485,6.710408211
914,-1.943968177,0.605931103,-11.83425713,-31.3068409,2.882682323,11.38613224
915,-1.401895881,1.510483146,-10.32984734,-43.23914337,18.81092262,6.079555511
916,-1.586339593,2.283058167,-9.967058182,-61.90817261,30.10949898,5.914007187
917,-1.655898094,2.37475419,-10.15108681,-80.98427582,31.17967987,15.10513115
918,-1.957284808,1.842008948,-9.666444778,-92.1031723,36.3545723,27.84807587
919,-2.088474274,1.121317625,-9.780826569,-103.6223907,40.50420761,41.47847748
920,-1.947801113,1.06652689,-9.924361229,-122.7274246,44.01394272,46.41055679
921,-1.575914025,2.06810832,-10.15259361,-136.6054688,43.74915695,41.13245773
922,-1.047815919,3.206567764,-10.69179821,-133.890625,38.74253082,37.69953918
923,-1.4496032,3.778050184,-10.86288357,-133.5045929,31.68713951,36.29656601
924,-1.118268132,3.861421347,-11.14503479,-133.2663269,20.98730659,36.24033356
925,-0.52338016,3.819998741,-11.17477226,-132.2574005,6.184211731,35.86667633
926,-0.705307186,3.988385201,-10.6879158,-134.036911,1.512740135,42.87411118
927,-0.917833745,3.358072996,-10.32044125,-142.9195251,2.551295519,50.50266647
928,-0.791097581,3.375237703,-9.856947899,-143.25354,-0.869704604,48.8772049
929,-0.637601495,3.729938745,-9.241064072,-143.3242035,-3.190591097,45.4493103
930,-0.392348289,4.158200264,-8.431208611,-130.8510284,-6.838365555,37.07432175
931,-0.403870076,4.402272701,-8.092076302,-116.1632843,-5.510934353,29.24120522
932,-0.177861601,4.55722332,-7.791547775,-101.8168411,-2.774673462,24.83590508
933,0.136127293,5.170022964,-7.060274601,-90.70072937,0.510566533,23.21145821
934,0.01812763,5.482588768,-7.18793869,-80.83422852,-4.906637669,22.50586128
935,-0.048261274,5.266532898,-8.310621262,-68.3307724,-11.32159138,20.54067612
936,0.380085498,5.413602829,-7.980234623,-53.44939041,-2.547076225,15.38502502
937,1.058094501,5.347848415,-7.232357025,-35.43962479,4.188425064,3.825363159
938,1.363610744,3.990501642,-7.189409733,-6.926696301,2.681907654,-10.6332159
939,1.125089169,3.332120419,-6.898469448,33.46285629,3.783694744,-19.87330055
940,0.276526332,3.567613602,-7.374809265,64.45308685,-0.364942044,-21.08487701
941,-0.278115183,4.840482712,-7.815262794,90.6095047,-11.5060873,-20.66151619
942,0.229506701,5.671057701,-8.467129707,100.6147385,-38.53889084,-12.09225082
943,0.844019175,4.196709633,-10.61205101,102.2091446,-43.55227661,-9.408910751
944,0.650540888,3.14399147,-10.81986332,107.7857132,-33.73186493,-7.179454327
945,0.005163141,2.804251432,-10.07578659,109.2678299,-20.91281128,-10.70762253
946,-0.555166841,3.074819088,-9.862267494,112.791748,-12.85120773,-22.66340828
947,-1.059306145,3.493008137,-9.913222313,111.4397049,-4.316588402,-28.54659081
948,-1.199056625,4.485924244,-10.0277071,103.637001,3.592144966,-24.29405785
949,-1.022214532,5.306687355,-9.079133987,91.27399445,13.84678841,-13.71771431
950,-0.457144201,4.673966885,-8.508828163,85.30796814,13.92304993,-8.774676323
951,-0.67141068,4.316378117,-8.510199547,85.43717957,3.328751564,-9.639173508
952,-1.00857079,3.172390461,-9.666495323,88.44355011,-5.689296246,-7.492071152
953,-1.51117301,1.904569149,-10.26066208,90.47886658,-6.594916344,0.859356523
954,-1.192181706,0.341733277,-10.43177319,94.29943085,-7.555030346,3.202879906
955,-0.958909273,0.302383363,-10.20218372,97.20762634,-11.14148426,1.866524458
956,-1.111543059,0.974720955,-10.07469463,96.0072403,-10.7156353,-4.258014202
957,-1.153208971,1.406695247,-10.04798698,84.05620575,-8.992250443,-5.845023632
958,-0.898848951,1.306674123,-10.18581486,73.91368866,-4.596767902,-0.121451356
959,-1.300545812,1.218922377,-10.19730854,64.47498322,-0.336229205,5.007573605
960,-1.477520585,1.703073382,-10.4178524,47.84021378,1.560517788,4.005206108
961,-1.493544817,1.413340688,-10.56035805,32.53949738,1.596381664,2.009464979
962,-1.263474941,0.965064704,-10.65854931,26.16638374,4.34338665,-0.172021717
963,-1.102038503,1.477878094,-10.3783617,19.44856262,9.463587761,-2.365163803
964,-1.016837835,1.899356246,-9.955412865,0.580333292,19.3725853,-1.931155324
965,-0.42294383,2.24503684,-9.736714363,-13.37668991,26.16897392,-1.220878005
966,-0.412472993,2.594569445,-9.912091255,-29.07593536,26.38537407,1.495994806
967,-0.695775449,2.647540569,-10.2743721,-50.36363602,22.78359032,6.475473404
968,-0.366161466,1.57206583,-10.41329384,-61.41738129,10.61166859,9.371869087
969,-0.139702678,1.033420086,-10.30025005,-56.3853569,-1.945991993,9.265129089
970,0.351250082,0.818807423,-9.751184464,-52.66144562,-12.2208252,7.996073723
971,0.075472206,0.506456912,-9.367318153,-54.87343216,-20.59096336,7.292485714
972,-0.068040743,0.489045799,-8.951733589,-62.20390701,-26.3637104,4.4479599
973,-0.375904679,0.377757072,-8.47217083,-55.60972214,-31.0045166,1.8011235
974,-1.110353947,-0.001206607,-8.644895554,-35.78846741,-27.24501801,3.756616116
975,-1.708037019,-0.199226424,-9.395615578,-18.22711754,-20.30667114,4.608492851
976,-1.668408632,-0.499371678,-9.174080849,10.30985832,-0.337786824,1.596286416
977,-1.012152314,-1.394537449,-6.827576637,49.44913483,21.88649178,-10.18627357
978,-1.617447495,-1.844017267,-7.052481174,116.1174622,26.01383781,-35.3458252
979,-2.225761414,-3.776463985,-10.20582104,159.6106415,44.8877449,-57.70748901
980,-2.217961788,-2.876036644,-12.30280876,143.3461304,26.92806816,-78.30628204
981,-1.114028692,-1.06741333,-12.49412918,156.817749,14.80766392,-88.65055847
982,-0.626097918,0.23912257,-9.117300034,164.5820923,11.75696087,-80.47973633
983,-0.898350239,2.309707165,-8.786026955,169.7221222,16.06978416,-70.5689621
984,-0.685989857,0.883428872,-11.77226257,161.4507141,0.735982358,-63.96969604
985,-0.26671654,-0.663346052,-13.170331,164.4719391,-10.65945721,-61.539711
986,0.446475655,-1.100790262,-13.00934124,150.2721252,-24.11252022,-55.46766663
987,0.99895525,-0.633945167,-12.68791103,134.9974365,-35.0289917,-54.14903259
988,0.948182702,-1.04714787,-11.90013885,123.6083145,-45.06319809,-57.24972153
989,-0.049238313,-2.631741524,-10.51695156,127.1657486,-38.34495163,-57.39371872
990,-0.618215382,-2.582986593,-9.244620323,121.9126205,-35.79409409,-49.91183853
991,-1.154759049,-2.520149469,-9.534999847,112.0195999,-30.84414482,-36.15283203
992,-1.064559102,-3.794588804,-9.475186348,95.3319397,-19.12094498,-23.87926292
993,-0.845752239,-5.340851307,-8.726185799,82.34618378,-10.28799152,-16.47603416
994,-0.939261377,-5.662675858,-7.763924599,74.27849579,-0.514076293,-10.37490463
995,-1.0847224,-4.968815327,-8.417771339,64.08909607,-2.993944645,-8.029590607
996,-0.680663586,-3.479528427,-9.98812294,40.21103668,-11.01696682,-5.853658676
997,-0.369703054,-2.015851259,-9.269224167,15.9727869,-6.77276659,-1.534272552
998,0.476713479,-1.418340683,-8.248754501,-10.45030308,-0.44028905,10.28024101
999,0.294231206,-2.272660255,-7.789455891,-38.75318527,-0.960501671,19.35889816
1000,-0.499915004,-3.038071394,-8.491791725,-56.22574615,-3.043911695,25.67040253
1001,-1.002518177,-3.539515734,-9.168780327,-65.95617676,0.897306383,30.42733574
1002,-0.572909534,-3.318051815,-9.333831787,-71.04211426,2.229567766,29.30348587
1003,-0.539795339,-3.631799698,-9.575660706,-74.97736359,4.828835011,29.66324806
1004,-0.513656795,-4.310379505,-9.52957058,-68.13191223,-0.019869423,26.54835701
1005,-0.813057244,-4.135049343,-9.449531555,-59.86177826,-4.002789497,20.89713097
1006,-0.970712006,-3.328744888,-9.43787384,-50.38796234,-10.78966713,21.75328445
1007,-1.483384013,-2.697485209,-9.828022003,-35.7507019,-18.42308807,26.18715858
1008,-2.067760468,-2.845660448,-9.687270164,-24.20824814,-15.20828056,26.41366005
1009,-2.11892724,-3.527826786,-9.25310421,-24.97862244,-10.27785301,24.16739464
1010,-1.873877525,-3.184886456,-8.849529266,-33.42360306,-1.262950182,22.17940331
1011,-2.039479494,-1.893318415,-8.910884857,-41.35567093,2.549723625,16.26766014
1012,-2.063073158,-0.960636616,-9.976114273,-51.425354,3.600695133,13.21702862
1013,-2.075996876,-1.489767432,-11.14653778,-55.27043533,2.407172441,9.836397171
1014,-2.305864573,-1.945194244,-11.47383022,-49.49427032,12.52280617,4.942400932
1015,-2.467206717,-1.343349576,-10.62183285,-45.81296921,26.28540611,-0.844657481
1016,-2.029546738,-0.952641368,-9.893105507,-50.42575836,35.79450989,-2.272536755
1017,-1.974674225,-1.173781753,-10.0897274,-49.86481476,36.01533508,-4.832906246
1018,-2.006151915,-1.960383534,-10.31778908,-37.87675476,30.26049042,-5.193165302
1019,-1.568933368,-1.897675991,-10.35588646,-22.06538391,28.61876488,-4.997387409
1020,-0.764363706,-1.590309858,-9.815132141,-11.77362633,37.28459549,-3.555862427
1021,-0.367107987,-2.200149775,-8.955000877,-16.18787193,49.49828339,1.963603377
1022,-0.290480435,-2.028604269,-8.449540138,-11.97758579,45.78426361,2.476229668
1023,-0.42757085,-1.887965083,-8.370796204,1.496376395,32.74008179,-1.66695118
1024,-0.452073187,-2.187159061,-9.454277039,16.66501999,19.19281769,-6.560382366
1025,-0.362648636,-2.377337694,-9.753025055,35.6499939,6.33269453,-10.44111347
1026,0.168342263,-2.354718924,-9.658373833,41.6076622,-1.971198559,-13.83436298
1027,1.095816731,-1.952138066,-9.241197586,40.07646561,-7.02559948,-7.954347134
1028,-0.246438116,-1.740209699,-8.529184341,32.00782013,-10.34541416,-6.675445557
1029,-0.333866984,-1.835746408,-9.091453552,25.64017868,-17.88660812,-0.877244294
1030,-0.59576267,-1.170091271,-9.677802086,21.39507675,-17.86983299,6.316518784
1031,-0.694489002,-1.502347231,-10.4258709,5.430884838,-13.00814915,13.78436184
1032,-1.093646765,-1.409124494,-11.54490471,0.590143383,-13.58023262,19.97352791
1033,-1.712014079,-0.25241062,-11.44799995,-9.818910599,-13.90166473,25.18714905
1034,-2.441545248,0.151484236,-10.53139877,-41.85340118,2.104859114,31.14909554
1035,-2.518028975,1.382918715,-9.766421318,-67.83378601,20.02080345,27.57872581
1036,-2.315005541,2.402186394,-9.0492239,-98.26261139,24.27995682,29.07827377
1037,-2.273340225,2.586732626,-9.625546455,-131.2276154,16.89552689,39.17753601
1038,-2.226944685,1.928088903,-10.21527958,-164.1043854,13.2992878,55.65856171
1039,-1.917151093,0.762916207,-11.00351524,-184.8939056,13.66088676,65.7753067
1040,-0.773501396,0.78500247,-10.63699436,-191.2448273,25.99337578,65.06983948
1041,0.045982745,2.12399292,-10.50768471,-201.1379242,34.97175217,59.98780441
1042,0.329051167,2.585243464,-12.10665131,-196.7812805,19.67578125,56.28795242
1043,0.328888893,2.461220741,-12.57981682,-204.2015533,12.78046322,59.50698471
1044,-0.029015355,1.838761091,-12.625741,-206.8523865,20.63166428,60.86188889
1045,0.290179819,1.561270714,-11.80454063,-198.9067841,19.35304451,59.92442703
1046,0.499138355,1.607347846,-11.08935833,-192.1196747,14.20920086,56.03934479
1047,-0.336095303,2.476019382,-10.13805866,-184.8783264,5.766507626,48.60069275
1048,-0.204733893,3.857915878,-9.465532303,-174.6465912,1.893672109,40.84811783
1049,0.332751691,4.684712887,-8.76531601,-159.0823669,1.480627656,29.464674
1050,0.170733556,5.035342693,-8.023111343,-147.155838,-12.55302715,19.07676506
1051,0.008167896,5.723696232,-7.329783916,-131.4718018,-16.64269447,13.98071098
1052,0.489959836,6.356409073,-6.489467621,-110.4295425,-10.9321804,14.49179363
1053,0.839653075,6.488183498,-5.234498978,-88.87519073,-7.298822403,10.03539181
1054,0.553248584,6.045043945,-5.575561523,-71.8946991,-15.26783466,-2.10509038
1055,-0.118605658,5.553841591,-7.505956173,-49.69015884,-26.52256775,-4.935386181
1056,0.387728035,5.223311424,-8.231990814,-26.57300377,-25.32868004,-0.018422022
1057,0.356690884,3.475902081,-8.118004799,10.61955452,-2.63520813,-3.245636463
1058,1.137723804,2.544314861,-7.179988861,56.27027893,14.08820343,-17.8588562
1059,1.622999549,3.83419919,-7.385734081,100.3927002,12.95818424,-35.80749512
1060,0.358515054,6.329880714,-7.618948936,132.1194305,7.673438549,-44.4491806
1061,-0.198735684,6.807451248,-8.696884155,138.5923462,0.621115088,-40.03512955
1062,-0.003106565,6.047350407,-9.544846535,130.1904144,-0.596756041,-30.93512154
1063,0.702208936,5.21406126,-10.05945969,126.8006439,-5.882243633,-23.05347824
1064,1.054838419,5.011765957,-10.5049839,123.77285,-21.4635849,-21.04783058
1065,0.916622341,4.967864513,-10.43372059,114.3744125,-23.83128166,-27.1630249
1066,0.348592132,4.795773983,-10.15032482,92.03723145,-22.89912605,-30.98503113
1067,-0.286561161,4.504631042,-9.645368576,68.19116211,-24.66034508,-30.14474678
1068,-0.943314373,4.607702732,-9.052495003,50.26403046,-33.35155869,-26.66572189
1069,-1.265749097,4.285829544,-8.967516899,40.05319214,-40.49564743,-21.70050812
1070,-1.108723879,3.734119415,-9.062636375,35.48352051,-40.29578018,-15.22899818
1071,-0.976535618,3.012321711,-9.09118557,24.92251587,-33.96678543,-11.83083534
1072,-1.278740883,2.635363579,-9.510640144,26.6497345,-25.54139709,-13.587924
1073,-1.135372877,2.404703379,-10.57312393,33.61188889,-19.89426231,-17.43847275
1074,-0.956041276,2.263286829,-11.00305653,40.17749405,-18.19714928,-20.98639679
1075,-1.016068459,2.515676975,-10.93025684,45.67878723,-7.490839958,-19.92084503
1076,-1.00342834,2.719340801,-9.969194412,49.7013588,8.389678001,-17.85318756
1077,-1.236085057,3.128572226,-9.367803574,55.86735153,16.87234306,-11.25902748
1078,-1.337663293,2.478186846,-9.229198456,54.40849304,17.67542458,-0.734138906
1079,-1.641234279,1.784311771,-8.640939713,54.51810455,14.85664845,3.321928024
1080,-1.610537648,0.770315945,-8.367337227,57.8013382,5.650280476,2.171176195
1081,-1.340716362,1.093364835,-8.576581955,58.3960228,-6.554452896,-3.626987934
1082,-0.994674921,1.836738825,-8.454278946,56.83556366,-14.01630306,-6.349830151
1083,-1.217631102,2.243429184,-8.661624908,41.0302887,-10.5155344,-6.301207066
1084,-1.359650373,1.549911261,-9.206409454,23.19985008,-3.813168287,-5.347500324
1085,-1.374170542,0.460272729,-9.579434395,20.15060616,3.47772336,-5.902436733
1086,-1.074588895,0.752446055,-9.541139603,17.25380516,10.39102554,-8.435191154
1087,-1.045807719,1.657949924,-9.576786041,-0.264893144,12.74441528,-8.631378174
1088,-1.555998921,1.318040371,-9.748915672,-12.63392353,14.09644127,-1.723538518
1089,-0.322577208,1.135584474,-9.623278618,-13.5366106,3.511440277,-8.59871006
1090,-0.904511333,0.799356699,-9.679356575,-9.832573891,2.196124077,-9.733592987
1091,-1.050091386,0.23648414,-9.753603935,-8.263742447,1.439600825,-7.803494453
1092,-0.514406621,-0.366663754,-9.493332863,-0.004181275,-7.359983921,-9.167243958
1093,-0.807472348,-0.346058249,-9.077453613,15.20696735,-19.71782875,-11.90056801
1094,-1.489559293,0.027463429,-9.125991821,32.64141464,-25.63066292,-13.74580574
1095,-2.159869671,0.973849893,-9.77592659,43.10720062,-24.50001526,-15.53052998
1096,-2.539957047,1.893592954,-10.45481873,49.16307831,-14.18461704,-15.98589897
1097,-2.493668795,2.333119154,-10.38653564,60.54302216,11.13215923,-19.50926781
1098,-2.058484316,0.930175185,-9.625594139,58.87797928,35.66274643,-22.93948555
1099,-1.61741519,-0.051835574,-10.21165562,71.16543579,52.18348694,-29.59900665
1100,-0.861935079,-0.162475511,-9.799631119,104.0314102,59.56044006,-40.02845383
1101,-0.199025095,0.082388684,-9.883237839,124.6629486,61.19855118,-45.65886688
1102,-0.379573584,0.305472493,-9.936628342,139.4936523,58.16497803,-45.96712875
1103,-0.388121486,0.754716158,-9.243807793,134.9299927,48.94646072,-37.50996017
1104,-0.922082245,2.758196831,-9.377103806,113.1118317,33.5218277,-33.67634964
1105,0.210081816,3.257456064,-11.51159286,99.01457977,17.91652489,-39.76894379
1106,0.235214144,2.128095865,-12.23278809,86.85636902,6.867239952,-38.83632278
1107,0.164834335,-0.117283568,-12.37092113,75.91603851,0.464766473,-33.23006439
1108,0.867077112,-2.684461832,-12.00508308,83.14124298,-5.072852612,-25.58072281
1109,0.42666468,-3.845948219,-10.60256863,103.6658096,-10.44577503,-25.34693909
1110,-1.123725533,-4.172635078,-10.30389023,110.2980194,-20.90688896,-31.71324921
1111,-2.130721807,-2.556866646,-10.66858959,115.0320816,-20.02699661,-31.99544525
1112,-1.430599213,-1.220736504,-9.934191704,111.3927231,-11.12757969,-26.9824791
1113,-0.577129424,-2.366033077,-8.843706131,95.26960754,-4.997247696,-17.07358742
1114,-0.61022824,-3.964601278,-8.3104496,78.00320435,-12.01186752,-8.183117867
1115,-0.957514942,-4.452523232,-7.752002239,61.23319244,-16.52067947,-5.799547195
1116,-0.745656908,-4.498096943,-7.503077984,43.57530975,-13.37556839,-2.700270414
1117,-1.25422883,-3.789555788,-9.046868324,23.23722839,-17.70465851,-0.405866414
1118,-0.544163823,-2.494376898,-9.503178596,5.151132107,-21.31253433,-1.376768112
1119,-0.531376421,-2.771972895,-8.677280426,-12.56396294,-11.01632786,-0.32406503
1120,0.088767439,-2.513349533,-8.453242302,-26.86496925,-6.334338665,2.037905931
1121,0.689221978,-1.976531386,-8.706339836,-50.37907028,5.774232388,9.207159996
1122,0.737805367,-2.879522324,-9.358363152,-63.35858917,12.55392838,16.23613167
1123,0.576172054,-2.707475901,-10.23139954,-66.43741608,13.4382782,17.28300285
1124,0.651976287,-2.547608137,-10.5917263,-67.71112061,13.52993202,21.08532906
1125,0.288998514,-2.227248192,-10.81673431,-62.53661728,11.25974274,23.70640945
1126,-0.020869208,-1.704180956,-10.93051624,-56.62195969,13.04212952,23.87634659
1127,-0.494014442,-2.003794432,-10.36924839,-49.18748093,7.837700367,25.29153633
1128,-1.017585278,-2.376496553,-9.839195251,-37.24975586,1.578892827,22.30868149
1129,-1.047016144,-2.761137247,-9.626502991,-26.31500816,0.976858914,17.11619377
1130,-0.69713515,-3.064669132,-9.422893524,-11.90964508,-3.174755573,12.99361992
1131,-0.887308061,-3.343628645,-9.253289223,-2.421598673,-8.686825752,7.277430058
1132,-1.293672562,-2.755292416,-9.577729225,-2.789787769,-10.70954514,0.869352996
1133,-1.557237029,-2.057279587,-10.18225479,-10.97072697,-8.207715988,-0.912677109
1134,-2.035422564,-0.92294544,-10.72413349,-24.44510269,-1.134561777,-6.199586868
1135,-1.412074924,-0.636560142,-10.90365314,-42.2873497,3.99749589,-6.897953987
1136,-1.132383823,-0.826512754,-10.29297638,-58.87746811,11.26534462,-5.055511475
1137,-1.537941575,-0.983632565,-10.12671375,-65.39617157,5.630634785,-2.873929501
1138,-1.32445693,-1.65745616,-10.56934738,-57.62046051,-4.9560709,-3.515672684
1139,-1.394503832,-2.506826639,-10.85467434,-41.02722931,-7.478194237,-8.979019165
1140,-1.018615842,-2.369779587,-11.15544033,-19.14806747,-4.574982643,-16.83331299
1141,-0.539668918,-2.038198709,-10.22471714,-3.690891266,11.99300766,-15.54440117
1142,-0.258465081,-1.854493618,-9.370998383,-3.108190298,21.94980621,-7.824738979
1143,-0.189917013,-1.24492538,-9.327724457,0.880859911,16.31142426,-3.941266775
1144,-0.626592696,-1.228561997,-10.38020992,15.78290081,6.07653141,-9.456175804
1145,-0.725018084,-2.043494225,-11.04512787,35.07461548,-2.936132908,-13.10828114
1146,-1.16336,-1.890683532,-10.52241898,51.31498337,-11.73757553,-17.30053711
1147,-0.628336966,-1.081475258,-9.951786041,58.38882828,-20.07335663,-17.12115288
1148,-0.859690309,-0.316192031,-9.171620369,56.87368774,-27.41328812,-18.50351524
1149,-0.377012581,0.0528339,-8.468345642,47.52096558,-38.07437134,-10.73345852
1150,-0.874619186,-0.158837184,-8.183135033,37.57766342,-45.33189392,-0.699805081
1151,-0.882717013,-0.400549829,-7.993825912,28.58627129,-48.19089508,6.711602211
1152,-0.50902462,-0.762210846,-8.430218697,14.57870293,-49.32118225,13.69163609
1153,-1.132130623,-1.88790977,-8.759414673,5.838721752,-45.45901489,19.32880592
1154,-2.254849911,-2.816762686,-8.883043289,3.962552309,-38.28219604,16.1266098
1155,-2.45237112,-2.325762033,-10.07703209,-8.688187599,-29.08108711,13.45180321
1156,-2.331007481,-0.878988743,-11.26604462,-23.09190941,-16.30075645,8.270710945
1157,-1.91329515,0.222873718,-10.71625137,-29.83898926,1.025382161,5.662153244
1158,-1.413215399,0.860510409,-9.444177628,-42.58039093,12.83744812,11.25672436
1159,-1.516103506,1.164062023,-9.17655468,-59.68420792,14.14920425,21.69075775
1160,-1.574443579,0.70582515,-9.254733086,-82.62078094,15.32629967,29.46535492
1161,-1.414172411,-0.588410854,-9.479807854,-100.1092758,24.54332542,33.97806549
1162,-0.994587541,-1.857631445,-10.15933514,-98.27100372,32.98344803,35.26688766
1163,-1.176648378,-1.590783596,-10.2273941,-100.215332,41.48937988,28.76300621
1164,-1.363152504,0.574994683,-9.80219841,-117.6850739,46.4203949,31.02805328
1165,-0.859179258,3.230839968,-10.92290974,-128.2991791,40.78207016,37.52698135
1166,-0.780445158,3.696142197,-11.4470005,-142.1556549,33.03539276,45.41803741
1167,-1.016910315,2.855145693,-12.13503265,-146.3738403,23.4720211,53.33979416
1168,-1.233727574,1.735947371,-12.43037891,-148.3191376,22.28139305,58.32602692
1169,-1.538653851,1.093646884,-12.18825054,-150.8774109,19.43871117,58.70465851
1170,-1.656742454,1.481053591,-11.4717741,-151.410553,14.31956005,55.09082031
1171,-1.578594327,2.46540451,-10.73497772,-156.8442383,6.026498795,48.7049408
1172,-1.133675098,3.13438797,-10.1572752,-161.5180511,0.8923316,42.02750778
1173,-0.876356781,3.610276461,-9.684803009,-154.8609161,-1.641401887,37.40364838
1174,-0.71536696,4.06214571,-9.075378418,-142.3019867,-8.167381287,36.97104263
1175,-0.870936692,4.440518379,-9.0057621,-131.2125092,-10.31838703,35.31761551
1176,-0.971648276,4.445668221,-8.791303635,-120.6707535,-10.37870693,32.84803772
1177,-0.623926163,4.191585064,-8.411932945,-109.304657,-6.523115158,30.63926315
1178,0.107496142,3.992133856,-8.00041008,-90.8782196,-2.159378767,26.7104969
1179,0.841166794,4.310359478,-7.599649906,-67.53868866,4.830767155,16.92686653
1180,1.300272107,4.387647629,-7.048435211,-46.79612732,2.459414244,1.679322362
1181,1.108082056,3.477667093,-6.927249432,-20.58936691,3.709046364,-11.60370827
1182,0.539172828,3.072514534,-7.190964699,14.9651804,5.240457058,-16.6925106
1183,-0.098904401,3.087424278,-7.168075085,56.78281784,1.791259646,-20.5732975
1184,-0.121117227,3.844202518,-7.861632347,95.40325165,-2.33281517,-27.51814651
1185,-0.246806577,4.308282375,-8.841640472,117.0699081,-8.442203522,-26.97848511
1186,0.079251431,4.194410801,-9.976804733,121.9525375,-5.523788452,-23.6453495
1187,0.441951573,3.946463823,-10.22320747,115.6660614,0.068696573,-18.95779037
1188,0.22085847,3.74798131,-10.15755081,101.3573456,7.618116379,-17.20983505
1189,-0.326377273,3.96783042,-9.908576012,95.74221802,14.11308384,-20.25728798
1190,-0.492152989,4.309668064,-9.728368759,79.67891693,13.72477436,-23.32112694
1191,-0.839021862,4.282715797,-9.677727699,53.93429947,12.65508556,-21.57674789
1192,-0.857927978,4.364338398,-9.759847641,34.50731277,7.27318573,-15.64343834
1193,-0.689943254,3.393930912,-9.913938522,30.99655724,1.374587655,-11.86909294
1194,-1.160071254,2.465939522,-10.0901804,38.95849228,-2.334514618,-9.054223061
1195,-1.027097344,2.378466129,-10.24062824,47.43383026,-7.439326763,-5.652570724
1196,-1.05425179,3.569929361,-9.775324821,50.8650856,-15.0186491,-2.590449333
1197,-1.020576596,4.140007496,-9.317046165,49.10538483,-29.59113503,4.987656593
1198,-1.529602885,3.151832342,-9.346758842,45.7547493,-34.48449326,16.05438042
1199,-1.060051203,1.910904527,-9.635803223,50.71142578,-36.34863663,19.38071632
1200,-0.633085489,-0.232969135,-9.785291672,64.04090118,-31.64643478,15.82022476
1201,-0.296535403,-0.485858589,-9.915884972,76.3922348,-18.04590225,6.24785471
1202,-0.18957755,0.648018956,-10.29722881,79.89368439,0.171455264,0.251560777
1203,-0.357581019,1.415922046,-9.760615349,74.11721039,13.14356041,0.102888279
1204,-0.540255368,1.655107617,-9.110131264,67.46336365,11.68970203,-2.071608543
1205,-0.733160138,1.113453746,-9.306742668,53.46809006,4.934682369,-4.172652245
1206,-0.647379339,1.280890942,-9.715631485,40.20842743,-0.196495324,-3.77112627
1207,-0.128869906,1.482796192,-9.754954338,26.15235901,1.947466254,-4.929720879
1208,-0.677458644,1.5004704,-9.579294205,17.64690208,5.280282497,-2.806559801
1209,-0.940178931,0.642408788,-9.700875282,13.85356426,9.064291954,-2.73927474
1210,-0.204597414,0.633344948,-9.949818611,16.13498878,9.679706573,-9.553788185
1211,-0.944489956,0.888480425,-10.24889183,8.357441902,8.087150574,-7.714799404
1212,-0.567302346,1.111430287,-10.42158699,-6.864596844,3.368532181,-7.318261147
1213,-1.022491336,1.248981953,-10.24930859,-17.12408638,2.130786657,1.659077048
1214,-1.125081539,1.12344718,-10.2478981,-20.94464684,1.116433859,6.728723526
1215,-1.612010121,0.751205325,-10.05893993,-21.89934158,-2.227393389,8.54259491
1216,-1.424988985,1.078457594,-9.627837181,-19.16301155,-7.401844501,5.972340107
1217,-1.017694473,1.662282467,-9.236763,-23.14391708,-4.789206505,3.136229753
1218,-0.921459138,1.419981837,-9.4871912,-32.63821411,-2.945273161,-1.134384394
1219,-1.192255259,1.199653506,-9.889076233,-35.1868782,-1.740614891,-5.413236141
1220,-1.241392374,1.647892952,-9.869003296,-33.58341599,2.321967363,-8.924724579
1221,-1.365269423,2.24767518,-9.697436333,-31.20067978,9.722005844,-9.463079453
1222,-1.388837695,2.314958572,-9.8615942,-32.90232468,20.10383987,-8.295249939
1223,-1.400395989,2.063324451,-10.2779665,-23.84276009,31.02957726,-10.00688076
1224,-1.467452049,1.556701183,-9.944857597,10.99749088,33.77906799,-19.36936378
1225,-1.437982202,0.790611565,-10.21056557,22.85062027,28.56180191,-22.8330555
1226,-1.159985662,0.4758223,-10.79820633,27.47531319,29.23197365,-24.67290878
1227,-0.975837767,0.595023513,-10.50247669,46.95941162,29.89874268,-30.74472427
1228,-0.473428845,0.429173797,-10.06924629,60.73066711,33.25268173,-40.74869537
1229,0.219583184,-0.122363955,-9.129243851,75.91803741,44.19634628,-45.29391861
1230,0.147363409,-0.288054138,-8.503427505,90.210289,45.79716873,-46.12262344
1231,-0.388005883,0.096433952,-9.647724152,107.8201828,38.50279617,-54.78444672
1232,-0.056084905,-0.295911759,-10.8614645,133.8961792,35.92743683,-62.26472092
1233,0.434461713,-1.191002727,-11.41414738,158.8510742,33.41628647,-61.64702225
1234,0.790865362,-1.947632313,-11.32560635,161.7585907,29.36150742,-55.3614502
1235,1.720984101,-2.46954298,-10.91771126,153.9207458,25.21281052,-46.96341324
1236,2.00567317,-2.046039104,-10.53910351,150.4491119,14.90475368,-37.51038742
1237,1.681162238,-2.7978549,-10.17748165,161.9982605,6.135882378,-32.22040176
1238,0.792243719,-3.307832956,-9.802482605,183.7611847,-8.120956421,-29.90757179
1239,0.065636322,-2.894979239,-9.404484749,191.3445892,-26.8237915,-22.48138428
1240,-0.631606936,-3.25424695,-9.223027229,173.9519958,-46.35557556,-14.36031628
1241,-0.911293209,-4.917881489,-9.162060738,147.0492554,-52.70840073,-17.82421875
1242,-0.724832594,-5.345320225,-9.02728653,123.7729568,-57.77741623,-23.84063911
1243,-0.037217453,-4.718370914,-8.456969261,113.6038361,-55.66836929,-24.42580605
1244,0.253358185,-3.792253017,-8.597169876,103.21492,-48.83127213,-21.12998772
1245,-1.493710399,-3.133314848,-7.854445457,85.24013519,-51.3902092,-20.1611805
1246,-1.754165411,-4.364506721,-7.092178345,62.31335831,-41.37433243,-20.79860115
1247,0.646700561,-4.159624577,-8.430384636,38.63542938,-27.00106621,-13.96991825
1248,2.068590403,-3.059968472,-8.954879761,17.62642288,-13.15887737,-0.055080198
1249,1.389515996,-3.006781578,-7.859736919,-4.863180637,-0.027411999,8.37415123
1250,-0.339646012,-4.756928444,-8.46493721,-9.950839996,2.697134018,8.027702332
1251,-4.682267666,-9.09432888,-9.221000671,28.27982521,1.068004489,-29.13029289
1252,-4.927526474,-10.73639584,-10.00576878,67.69002533,-2.167635441,-74.49907684
1253,5.055110455,1.838326335,-10.49797535,34.88095856,-28.4436245,-64.36899567
1254,0.935294867,2.347030163,-9.941854477,-7.960469246,-61.37675095,-30.16005898
1255,0.05980172,2.047662258,-9.464503288,-51.20236206,-46.59849167,-10.82143879
1256,-2.26158309,-7.20494318,-10.08738708,-40.210186,-42.67957306,-8.222488403
1257,-2.736022234,-11.36843967,-9.388981819,6.274539948,-37.16452026,-23.13322258
1258,-3.368249893,-10.63921452,-8.355934143,51.18156433,-26.38622093,-45.31075287
1259,1.025304914,-5.564081192,-8.418463707,69.37155151,-23.16057777,-34.15746689
1260,0.377074987,-3.41936183,-7.19174099,63.28997421,-27.26620293,-16.90722084
1261,-1.330400348,-4.002682686,-5.622569561,31.57033348,-20.32397461,-7.301245213
1262,-1.38418293,-5.029389381,-6.132082939,-19.72339439,-20.560009,7.047931671
1263,-1.826618433,-5.450766563,-7.634097099,-61.0512352,-34.81128693,15.29367352
1264,-2.551840067,-6.062492847,-9.164090157,-98.13948822,-43.50193405,13.23801994
1265,-1.651131749,-6.146487713,-9.637693405,-101.8049393,-33.48039627,2.784629583
1266,-0.877525628,-6.251030445,-9.171908379,-97.39002228,-26.26124954,-0.64018029
1267,-0.579211295,-5.197992325,-9.754673958,-92.58877563,-23.371912,4.76976347
1268,-0.650793016,-3.683757067,-9.461624146,-89.84364319,-1.990452647,11.30041981
1269,-0.761945903,-3.475940704,-9.036174774,-95.76722717,14.81954384,19.34327507
1270,-0.778605103,-3.351573467,-9.574400902,-92.07034302,24.4477005,25.85564041
1271,-0.72717464,-2.823044062,-8.958903313,-84.29878235,32.00397491,31.21647453
1272,-1.014447212,-2.723122597,-9.53032589,-77.84970856,32.22539139,28.87228584
1273,-1.039214611,-3.057556391,-9.819275856,-64.31229401,26.68467712,23.27010727
1274,-0.46672079,-2.64904213,-9.773891449,-45.85460281,12.48866272,19.10517693
1275,-0.778672338,-2.389247417,-9.77925396,-30.96274757,1.736701846,13.5704298
1276,-0.587937832,-2.701967239,-9.866781235,-13.92152596,-11.96478844,17.45726967
1277,-1.282637119,-2.36711216,-9.362416267,-8.240006447,-17.13952255,19.4623909
1278,-0.342054158,-1.123530626,-9.522239685,-3.429393053,-27.02650452,29.19892502
1279,-1.438724399,-0.723685682,-9.217363358,-9.430621147,-36.498806,32.68574142
1280,-2.797418594,-1.608133435,-9.022176743,-14.93018055,-46.93759537,40.49760818
1281,-2.96808672,-2.695657015,-9.263449669,-26.15977478,-56.17827988,47.87951279
1282,-0.442966044,-3.36009717,-9.169304848,-55.11003113,-38.20642853,62.88694
1283,-1.618489385,-1.68076551,-10.30511379,-57.23314285,-19.70578003,61.63719177
1284,-4.443846703,3.278611898,-10.52015972,-49.68623734,-16.45685005,57.2725029
1285,-3.813464642,5.439249992,-11.1994381,-115.5340576,-12.25388241,68.40953827
1286,-2.430776358,1.385282993,-10.07310581,-166.6242218,-1.088049412,79.45056152
1287,-1.972358823,-1.334009171,-10.0271349,-187.243515,8.247591972,87.54964447
1288,-1.591886759,-0.597763836,-10.11392975,-181.3532257,24.23514175,86.98818207
1289,-2.134412289,0.057999521,-10.10139847,-190.3707733,47.33588791,87.71614838
1290,-2.535415649,1.530992508,-10.63909149,-188.5520172,55.97896576,86.29705811
1291,-3.335729837,2.241515636,-11.92234325,-197.3373413,51.02882767,90.20814514
1292,-3.086311579,2.706624508,-11.89852047,-205.1030579,50.74319839,84.719841
1293,-2.669113636,2.714759111,-11.11944485,-221.8466339,52.73842239,77.09301758
1294,-1.743707538,4.024272919,-10.69930363,-227.5565796,57.59920502,69.96661377
1295,-1.642740011,5.457983494,-10.24575329,-238.850647,52.6160965,64.31052399
1296,-1.000517726,5.911276817,-9.647494316,-244.5002594,55.28897858,58.51455307
1297,-1.136746287,4.685306072,-8.790959358,-239.1422272,47.65537643,45.9132576
1298,-0.737473726,3.920480013,-7.737872601,-216.092865,36.50846863,31.68801498
1299,-0.396417558,4.075217724,-7.497943878,-175.5905457,23.97192955,30.41247368
1300,-0.299853146,5.167668343,-7.060945511,-128.9206238,21.22953796,30.64668274
1301,-0.259134263,6.989774227,-5.72495985,-98.41687012,28.27827644,26.53974915
1302,0.368500888,7.591319561,-6.214745522,-77.01939392,22.82300568,15.86104965
1303,1.618005157,6.875601292,-6.93907547,-52.68949509,8.432222366,3.24997735
1304,2.506544828,5.063304901,-6.721442223,-28.65421486,4.304419994,-7.662581921
1305,2.81268239,2.910336971,-6.19802475,6.768969536,7.769685268,-12.9175024
1306,1.038818836,2.502808809,-5.962983608,51.77232742,10.24424648,-20.49981117
1307,0.492949277,4.17984581,-6.652237892,110.8793564,8.373120308,-37.29172897
1308,0.381491125,5.247431278,-7.285318375,158.411026,2.318214178,-51.46054459
1309,-0.176163465,6.052695751,-8.434303284,174.6613312,-3.101822615,-50.29204178
1310,0.656793296,6.665507317,-10.3134222,176.9186401,-2.907485485,-37.76703644
1311,0.810610056,4.745029449,-11.23128319,165.692627,-4.423208714,-27.39869118
1312,1.076402783,4.515676498,-11.22990608,164.436554,-4.638957977,-25.82673836
1313,0.687220812,5.58027792,-10.27538395,159.9438934,-9.854866982,-30.33485794
1314,0.301669002,6.528600693,-9.766963959,136.8591766,-15.11294651,-35.6156311
1315,-0.405203491,6.673629761,-9.682560921,100.9887619,-19.05608177,-34.45179749
1316,-0.630863428,6.36758852,-9.589630127,75.31784821,-21.04436493,-28.77757835
1317,-0.875725269,4.463614464,-10.02311516,61.17780685,-17.05596733,-21.7085495
1318,-1.294257879,3.241799593,-9.952519417,61.1874733,-7.955807686,-15.37372303
1319,-1.327795863,3.034002304,-9.764761925,66.48286438,-4.85641861,-9.841254234
1320,-1.052937865,3.290082455,-10.05931759,68.35025787,-12.28295422,-6.650662899
1321,-0.580987215,3.546235323,-10.33774757,59.58407974,-26.07476425,-0.951634884
1322,-0.38439551,2.219404936,-10.43738174,41.83679199,-25.79576683,7.791285038
1323,-0.38658753,0.970560431,-10.03791428,33.33366013,-10.89771748,16.44844818
1324,0.227058426,0.821717918,-10.04726791,41.36159897,7.950745106,21.38355827
1325,-0.053899758,0.896426082,-10.00941753,50.56410599,29.373209,21.32849884
1326,-0.547483623,1.846662402,-9.327388763,52.31126022,33.9113121,16.86153603
1327,-0.133739978,3.018111467,-8.871019363,38.25158691,29.82449532,15.52626705
1328,0.292280555,4.032574177,-9.155799866,19.72002411,26.15476036,19.40835571
1329,0.481740713,3.616528511,-8.991853714,-3.999415636,22.12310028,27.6417942
1330,0.023571748,1.482738256,-8.720752716,-26.29454613,9.99779129,33.06717682
1331,-0.745568275,-0.932629108,-8.525435448,-30.62661362,-5.220097065,26.71065331
1332,-1.099794984,-1.017375708,-8.4246521,-25.38759613,-9.319579124,17.11328888
1333,-0.534241855,0.068040274,-8.061174393,-20.15328217,-21.58414078,10.42074013
1334,-0.762884855,1.640118718,-8.235328674,-21.43146706,-35.51354599,9.242568016
1335,-0.8399508,2.191739798,-8.654090881,-25.77052879,-47.10306931,9.476540565
1336,-0.490836531,1.10943222,-8.940151215,-25.89686966,-53.82861328,6.003396988
1337,-0.203903973,0.222764567,-9.148548126,-21.30350685,-60.26237869,-0.347101867
1338,-0.612235367,-0.574477434,-9.809006691,-27.15780067,-78.35875702,-5.476685047
1339,-1.643946648,-0.096764952,-10.64023209,-33.65695953,-82.98327637,-7.637854099
1340,-2.213598967,1.911233544,-10.77630043,-26.37112999,-64.17919922,-14.77652836
1341,-1.567045927,3.124741077,-10.59788132,-5.246760845,-38.00636673,-13.76484013
1342,-1.227546215,2.984019279,-10.049263,2.112153769,-11.84650707,-11.6501236
1343,-1.307814121,2.081433296,-9.48207283,10.74556446,11.11459255,-11.16911602
1344,-1.668420911,1.305846572,-8.584327698,39.78421021,33.19079971,-14.25032616
1345,-3.017706156,0.794397235,-8.415083885,54.83409882,37.47678375,-27.44791794
1346,-3.207765579,1.514305592,-10.87507343,73.16240692,30.29919052,-44.42945862
1347,-2.37986064,1.412876844,-11.51252079,110.0080414,42.8489418,-56.43670273
1348,-1.750977993,1.1679461,-11.62466908,133.8908539,46.44983673,-64.78368378
1349,-0.619015574,1.680566192,-10.01918125,145.699707,51.47063446,-61.69216919
1350,-0.460026056,1.357415795,-9.405350685,157.9375153,64.56483459,-53.36372375
1351,-1.523018003,1.455045819,-9.907270432,180.9541168,73.17815399,-50.3728447
1352,-1.806240678,0.299114317,-10.62208366,191.8563385,66.92268372,-51.28950119
1353,-1.048647046,-1.199693322,-10.59105015,198.7227325,51.48410416,-48.18561172
1354,0.025670592,-1.779683352,-10.35802269,195.2958679,23.67520905,-38.11392212
1355,-0.24771817,-1.631395936,-10.86350346,182.8815918,-0.246750936,-35.84862518
1356,-0.558744788,-1.352564335,-11.2302599,159.723053,-14.33179474,-40.365345
1357,-0.35414654,-0.900105357,-11.08436394,127.3517227,-21.97161293,-40.15037537
1358,0.347250015,-1.322696209,-10.40032864,113.1154709,-18.7454052,-34.97674561
1359,0.042976297,-2.793159246,-9.615010262,105.0502243,-16.26298141,-24.72756386
1360,-0.385127217,-4.130735397,-9.438964844,95.07540131,-19.20914841,-20.90052986
1361,-0.139704093,-3.865931988,-10.10024261,79.87263489,-36.08528519,-22.42580414
1362,-0.250702381,-3.043913364,-9.954408646,67.39156342,-34.61199951,-22.26919174
1363,-0.692508936,-2.589714527,-9.01214695,57.64125061,-23.28128624,-22.94488525
1364,-0.560466945,-2.028579473,-8.438083649,43.14582443,-18.44531631,-15.8698101
1365,-0.370741218,-1.946783781,-8.683773041,16.52753067,-20.91606903,-4.994418144
1366,-0.801347077,-2.923299313,-8.452450752,-8.868667603,-15.64866352,1.317121744
1367,-0.770555973,-4.884228706,-7.876178265,-13.55167866,-14.86202526,4.167895794
1368,0.366292179,-4.694502831,-7.661478043,-21.46213531,-15.59516144,8.693498611
1369,0.834145248,-2.949898958,-8.017112732,-30.02378654,-14.3290987,15.74363708
1370,0.115246728,-0.966748357,-8.768882751,-49.2894516,-8.721842766,21.56716156
1371,-0.772139788,-0.946600914,-9.290825844,-64.14459229,6.842052937,22.57182693
1372,-0.785723209,-2.869000912,-9.718808174,-78.02008057,18.87796783,22.2840519
1373,-0.672828496,-3.656512976,-10.13043976,-78.52403259,18.75343704,21.46824455
1374,-0.249676213,-2.9730196,-10.38661766,-73.32309723,13.99652004,22.35135651
1375,-0.013777342,-2.199863672,-10.67076683,-72.510849,8.921372414,24.98590279
1376,-0.554132819,-2.39333868,-10.75109863,-73.24524689,3.482775211,28.43109703
1377,-1.480474353,-2.890470982,-10.83019257,-64.18749237,-1.015862107,28.1383152
1378,-1.784535885,-3.191572189,-10.74336815,-53.19406891,2.976936102,24.03498077
1379,-1.313954473,-3.57446003,-9.709754944,-48.14533234,0.341100425,21.83499908
1380,-1.268477082,-3.68620491,-9.40458107,-44.08418274,-4.163949013,20.19584465
1381,-1.483273029,-4.074437141,-10.33246326,-33.27228165,1.228237033,13.96786118
1382,-1.737303972,-3.25330925,-10.73333931,-27.50763702,24.42633057,4.593877316
1383,-1.754069448,-0.52553302,-10.71132755,-48.7739563,52.07268143,-4.085074902
1384,-1.908464789,1.452752948,-11.30920601,-59.46886826,65.70019531,-6.399651527
1385,-1.904067874,1.562227726,-10.83136368,-68.02760315,60.60448837,0.314302623
1386,-1.026394606,0.426453799,-10.08731842,-77.84461975,58.04348755,11.49231815
1387,-0.425742894,-1.306714535,-10.25579453,-76.33036041,37.14481735,17.51626015
1388,-0.65039283,-2.037538767,-10.71068287,-59.88214874,19.33079147,7.514014244
1389,-0.327888161,-1.481238246,-10.57363033,-38.4490509,17.17434692,-5.422607422
1390,0.041715983,-1.907125235,-9.974884987,-26.70240211,25.9984169,-7.661815166
1391,-0.091281578,-2.225191832,-9.293925285,-25.83589172,30.99592781,-5.301430702
1392,-0.004059225,-1.652534962,-9.09178257,-19.21261978,24.14810753,-6.48939085
1393,-0.59277457,-1.868615746,-9.303227425,-3.579872131,11.90865135,-14.93444443
1394,-0.349213094,-1.45230782,-9.928959846,16.3404541,1.907651424,-20.56715584
1395,-0.529303372,-0.660482287,-9.90433979,26.24049568,-7.09944582,-25.63920021
1396,-0.326489538,-0.180939987,-9.50358963,24.26804924,-14.0533886,-25.21423149
1397,0.174086422,-0.259538144,-9.649691582,22.2973175,-18.49816322,-18.36375999
1398,-0.168247789,-0.957748055,-9.558684349,19.31788254,-19.01102257,-16.75597
1399,0.818402886,-1.418415666,-9.239597321,26.40050507,-24.41584015,-10.59742737
1400,0.961322308,-0.979058087,-9.105811119,40.03546906,-39.05062866,-6.844001293
1401,-0.273861408,0.058498234,-9.418002129,48.40101242,-56.72481918,-7.049772263
1402,-1.208242178,0.934987724,-8.744146347,42.52285385,-78.18631744,-8.089185715
1403,-1.368527889,1.075351715,-9.26147747,28.19628716,-92.72138214,-7.836895943
1404,-0.452386767,0.653031528,-9.652170181,26.29309273,-88.22503662,-0.290655196
1405,-0.60679853,0.537817359,-9.702052116,19.93571854,-66.67499542,7.43028307
1406,-1.731946588,0.918149412,-9.516366005,0.075916566,-37.01376724,24.45431519
1407,-2.554939032,2.213295698,-9.755942345,-28.74831009,-9.721344948,41.55965424
1408,-2.113052607,3.424734116,-10.52407169,-38.29352951,-12.02622795,47.15794754
1409,-1.36911273,2.835959196,-9.894553185,-72.31014252,-5.370631218,53.68394852
1410,-1.051161528,3.005643129,-9.17883873,-116.1609879,9.462937355,62.08938599
1411,-1.558796883,3.164934635,-8.807722092,-133.3491364,16.29609871,59.19838333
1412,-2.264841795,2.950790167,-9.523899078,-136.8715668,19.29337883,60.51255417
1413,-3.251312494,1.887914896,-10.29275894,-142.9897461,18.795187,70.07962799
1414,-3.143777847,1.407836318,-10.60424423,-142.3834839,17.97510338,77.04310608
1415,-3.142718315,1.353177786,-11.42316914,-137.2388306,30.24417686,80.03943634
1416,-2.173233271,1.010251641,-11.06696033,-125.4227676,39.18137741,80.65896606
1417,-0.719635069,0.738978267,-11.36985683,-114.4911957,37.09648895,78.83792877
1418,0.069095559,1.093949318,-11.3269186,-105.1354141,27.39192581,73.96442413
1419,-1.224758863,2.482914686,-10.93528938,-103.6308746,14.57706547,68.06380463
1420,-1.161140442,3.400541067,-10.2627039,-108.15979,14.80521393,65.33208466
1421,-1.401779294,4.627133846,-8.178191185,-113.4838867,-0.987380385,56.03669739
1422,-2.251291275,4.570940018,-7.21505785,-129.6409454,-22.56546021,46.39112091
1423,-1.954335809,5.488366604,-8.599036217,-69.87001801,-40.62630081,31.78068542
1424,-1.245471001,5.579723358,-8.825695992,-36.83046722,-42.42684937,20.98574638
1425,-2.087937832,4.81858778,-8.987405777,-25.54106331,-40.07566452,11.56141376
1426,-2.526211977,4.695134163,-9.900623322,-22.67262077,-35.79135132,9.912424088
1427,-1.765042782,4.342283249,-10.05989933,-19.11657333,-27.05309486,8.135817528
1428,-0.951933742,3.904665947,-9.121307373,-10.29045963,-14.06468678,3.419069052
1429,0.072863162,3.591703653,-8.829525948,16.88577461,-0.25386706,-13.35711384
1430,0.80509901,2.903040171,-8.954007149,63.97019958,-4.327842712,-37.99977493
1431,0.266789079,1.896030426,-8.409296989,107.1995163,-4.616466045,-52.68614578
1432,-0.795877814,1.499035835,-8.051766396,144.5623474,7.641083717,-56.04189682
1433,-1.257793307,2.483046532,-8.456781387,177.6934509,7.82354784,-55.14017487
1434,-0.530665576,2.126873016,-9.323122978,202.0641174,-4.885723591,-50.79397202
1435,-0.544349432,2.350797653,-10.06611919,194.3465424,-11.7193079,-40.41888809
1436,0.033358779,2.850531101,-11.99688911,166.190918,-6.368233681,-30.29430008
1437,0.771369398,2.841104507,-12.07795906,148.0746002,-6.474605083,-24.93058586
1438,0.745907485,1.798732758,-12.48430252,126.2874374,-9.206044197,-23.98304176
1439,-0.181884199,1.198090196,-12.84021378,108.5375366,-10.48820591,-26.48965454
1440,-1.595767498,1.122042894,-12.04273891,81.37451172,-8.870335579,-24.43000221
1441,-2.076113939,1.794342995,-12.28630638,59.7714653,-4.539557457,-21.61189461
1442,-2.105824709,2.191295385,-11.13699627,35.58927917,1.510759592,-11.14481258
1443,-2.356570721,2.097721338,-9.587337494,18.94649506,6.131700993,-2.671785593
1444,-1.786209822,1.859658241,-8.872460365,5.852375984,8.025613785,3.06764698
1445,-1.429464698,1.103051901,-9.078212738,-14.46274662,6.749427795,8.99423027
1446,-2.505478859,0.990940332,-10.91093636,-22.96252632,0.258522391,13.71213722
1447,-1.968473673,-0.756782055,-11.02083302,-34.03894424,-1.219650745,16.58757019
1448,-0.142357588,-1.82391572,-10.13304615,-33.52883911,10.03188896,11.28579044
1449,1.197288513,-1.115014315,-10.13945103,-22.93247795,15.54188251,7.403717518
1450,0.521876454,0.816902161,-9.951535225,-36.56871033,14.60328293,20.68767357
1451,-1.206774235,1.534900784,-10.14147854,-63.27991486,8.950630188,41.68542862
1452,-1.304409862,0.128291801,-9.515030861,-87.82174683,-6.292634487,50.31132889
1453,-0.828007042,-0.216390193,-8.928340912,-96.33473969,-23.8734436,45.96467972
1454,-0.966726363,0.13439101,-9.275748253,-92.15022278,-39.33093262,42.98767853
1455,-1.031356812,0.770344079,-9.635422707,-95.66694641,-41.85005188,36.53293991
1456,-0.927983701,0.529116511,-9.346590996,-103.8881302,-42.53505707,29.42101288
1457,-0.454808772,1.021455169,-8.111720085,-94.50484467,-52.09827423,22.21604538
1458,-0.361007929,1.562772751,-7.73252964,-76.63654327,-66.98416138,14.98138809
1459,-1.111872435,1.381946087,-8.059445381,-59.66222763,-71.26537323,6.343921661
1460,-1.82822907,0.675883114,-8.473532677,-55.40085602,-64.55033112,-1.363802195
1461,-2.017838001,0.242839709,-8.856781006,-50.31781769,-47.08752441,-5.557543278
1462,-2.327383995,0.30460754,-8.573657036,-34.35824585,-28.0458374,-8.46159935
1463,-2.235732794,0.875247121,-7.835687637,-15.46149254,-9.563520432,-10.16244888
1464,-1.686655641,1.060850024,-8.321713448,6.891517639,14.68909931,-13.78897095
1465,-2.290675879,0.193588421,-8.760857582,25.71525955,42.23053741,-21.96064949
1466,-2.620394707,-0.842960179,-9.447465897,34.27806473,56.10601807,-37.39409256
1467,-2.596237659,-1.620947957,-9.319062233,68.56417847,63.50431824,-51.8908577
1468,-2.752731562,-0.963985741,-10.04179001,91.26964569,55.52307892,-61.4344635
1469,-1.394613743,0.359776974,-9.743457794,117.7299652,51.69463348,-65.95820618
1470,-1.170292616,1.486586213,-9.344409943,124.6867065,57.06003952,-61.23408127
1471,-1.281961918,1.233520389,-10.15374947,120.3566666,57.57538223,-56.25805664
1472,-1.24236846,0.890732825,-11.24964905,133.5055542,53.06610107,-56.07065201
1473,-1.436165452,0.572894156,-12.13633823,136.6928864,48.90210342,-55.59388351
1474,-0.841575444,-0.081130385,-12.2039938,142.4269714,47.16868591,-52.11684036
1475,0.234182894,-1.114703298,-11.58898258,153.9039612,38.66326141,-43.8416214
1476,-0.699550867,-1.694728613,-11.57043076,171.8849945,19.68305016,-37.57090378
1477,-1.500325561,-1.417795897,-12.09119606,167.9260406,-4.063188553,-43.77274704
1478,-2.56408596,-2.483229637,-11.53986168,171.1645813,-6.587839127,-41.05922318
1479,-2.648880482,-3.839485168,-10.50404263,176.1763611,-3.498100519,-36.15565872
1480,-2.395451546,-4.596660137,-9.412970543,176.2281342,-10.42440319,-31.04348755
1481,-1.678501964,-4.396929741,-9.339449883,168.8179169,-20.70399094,-32.40629959
1482,-1.405496001,-3.644057512,-9.330978394,154.5570221,-27.37483025,-36.93646622
1483,-1.327722192,-2.95285821,-8.316123009,139.0101624,-17.78110313,-39.07667923
1484,-0.792065144,-3.398449898,-7.787503719,118.1962891,-7.668027401,-37.72826767
1485,-0.469173193,-3.632564783,-8.320584297,92.93120575,-12.73283768,-31.27376366
1486,-0.017152449,-3.881880045,-8.726761818,70.77921295,-24.15834427,-29.97975731
1487,0.218447298,-4.383445263,-8.705939293,52.50196457,-24.92327118,-28.301548
1488,0.133908719,-4.107845306,-8.044700623,37.59800339,-28.8944912,-21.96894264
1489,0.181702048,-3.036198378,-7.3166852,18.85169411,-29.91561127,-10.24054337
1490,-0.239241928,-3.082469463,-6.979400635,-12.42040443,-29.61198235,3.453411341
1491,-0.724271595,-4.405080318,-6.870054722,-42.25559235,-23.84252167,10.1049118
1492,-1.513122797,-5.684738159,-7.66169548,-56.39389038,-12.0443182,9.13777256
1493,-1.714671731,-5.609228134,-10.59198952,-53.3302002,-0.36400494,2.370555878
1494,-1.947941899,-4.131342411,-11.52099037,-57.17004013,13.24652481,-3.305724144
1495,-0.606054664,-3.240361691,-11.04371548,-58.14699173,10.74353218,-4.5443573
1496,-0.556934237,-2.828168392,-10.8944521,-58.68073654,6.388909817,1.696759701
1497,-1.173918486,-2.91778183,-10.86307526,-55.66740799,6.122810841,7.315824986
1498,-1.811109185,-3.216323137,-10.21769905,-52.46292877,7.941976547,9.476461411
1499,-2.055118322,-3.366415262,-9.80951786,-53.19534683,9.861099243,10.82719517
1500,-1.737519979,-3.217617512,-9.29979229,-56.33882904,7.528326035,8.865940094
1501,-1.572708488,-3.015108585,-9.028279305,-61.64896774,5.269256592,6.115934849
1502,-1.632898927,-2.754901648,-8.980610847,-63.56386566,3.202209234,2.485542774
1503,-1.632601142,-2.53990078,-9.283970833,-67.35597229,-4.574284554,-1.399577379
1504,-1.911291122,-2.417581081,-10.22864151,-71.17614746,-9.929576874,-2.747287273
1505,-2.257263899,-2.583909273,-10.60903549,-76.71418762,-11.47817326,-5.403248787
1506,-1.971925497,-2.364053726,-10.99218559,-74.24312592,-16.98178101,-8.0079813
1507,-1.913427711,-1.922739625,-11.27712917,-75.18622589,-14.49086094,-8.61620903
1508,-1.902848721,-2.196417093,-10.87356853,-70.92160797,-1.64908421,-5.572841644
1509,-1.34178555,-2.505764246,-9.901507378,-74.03255463,10.30744648,-7.974268913
1510,-1.471545458,-2.812201023,-9.318267822,-75.32421112,17.24481392,-12.73376274
1511,-1.282023191,-2.580845118,-9.711997986,-70.39730072,14.5398922,-17.8228302
1512,-1.174565434,-2.509139776,-10.002038,-54.44829559,11.04792786,-17.9499073
1513,-1.24970293,-2.4864676,-9.93547821,-41.72587585,4.140713215,-16.26027489
1514,-1.270549059,-2.12031889,-9.788222313,-30.03924751,-2.741357088,-14.76331234
1515,-1.295974135,-2.095657587,-9.660000801,-22.67637634,-7.494022369,-15.72169018
1516,-1.390556455,-1.507620811,-9.904209137,-15.42834091,-12.63215637,-17.61392784
1517,-1.364095569,-0.451012313,-10.53734875,-8.827552795,-13.26588249,-14.10507202
1518,-1.311258912,-0.202943027,-10.25275993,-9.525686264,-12.92954063,-7.330496311
1519,-1.196669936,-0.472846538,-9.593737602,-10.54231071,-17.14392853,-2.413161278
1520,-1.425556064,-1.004758239,-9.094112396,-6.17142868,-20.96100807,1.141732812
1521,-1.026674151,-1.214821458,-8.972449303,-1.048336029,-21.9201107,5.390701771
1522,-1.261927009,-1.037936687,-9.420231819,0.17164357,-7.970526695,6.852577209
1523,-1.813101888,-0.250214785,-9.318478584,-1.345147014,2.456065893,6.739457607
1524,-1.999645829,0.099018477,-9.532883644,-4.441672802,5.592867374,7.59252882
1525,-2.124972105,0.116197631,-9.389570236,-5.471970558,1.132261276,10.80784798
1526,-1.992632627,-0.475473374,-9.486542702,-10.74838924,-3.320312977,15.72323418
1527,-2.078234911,-1.100898504,-9.864624977,-9.104028702,-6.972088337,17.89597893
1528,-2.479973555,-0.864862025,-9.874792099,-5.534700394,-7.305398941,18.52837944
1529,-2.175716162,0.288519651,-9.510527611,-15.9316473,-1.081492662,21.70531082
1530,-2.031140566,0.654044092,-9.445511818,-45.08100128,6.296881199,28.38905716
1531,-2.043220997,0.701315641,-9.944674492,-73.61342621,13.61091232,34.65887833
1532,-1.695401669,1.10680449,-9.718137741,-96.09003448,14.29010105,33.53783798
1533,-1.386724472,1.205514193,-9.36138916,-114.4340744,16.73891068,30.89522362
1534,-1.030003667,1.203009963,-9.184587479,-125.199585,16.25483704,34.57019043
1535,-1.259585857,1.360987782,-9.069669724,-133.2484436,15.06596279,36.05290985
1536,-1.800361991,0.959566593,-9.86196804,-140.3543854,12.58908653,33.58105087
1537,-1.564036012,1.301173687,-10.01997089,-140.6878967,11.75767326,26.47893715
1538,-0.662405908,3.142553806,-10.20217705,-137.9041595,15.42860889,25.06879044
1539,-0.784749031,4.34791851,-10.09189892,-128.2787476,20.51046562,33.68916702
1540,-0.650563657,4.153015137,-10.20133495,-128.2947845,22.33416367,44.1607399
1541,-0.587002754,3.615925789,-10.29131603,-132.3913879,17.55708122,47.4312706
1542,-1.015390754,3.414164543,-9.84880352,-134.2708893,18.05001259,44.80471802
1543,-1.262993932,3.41724205,-9.469309807,-134.0957794,18.47029305,39.88243866
1544,-0.729574859,3.458165646,-9.161016464,-124.279747,14.25308132,37.36956787
1545,-0.430869967,4.419988155,-8.810001373,-104.9302444,9.262436867,33.57859039
1546,-0.362267047,5.097158909,-8.341237068,-88.43634796,1.094862223,33.67202759
1547,-0.725756824,5.566282272,-8.058442116,-76.06198883,-1.898286939,34.80766678
1548,-0.967212081,6.011685848,-7.585314274,-64.73645782,3.354416847,32.87762451
1549,-0.449426889,6.3458395,-6.798639297,-56.58564758,7.406278133,31.71057129
1550,-0.611604512,6.183469772,-6.642194748,-49.25249481,7.754612446,26.20530891
1551,-0.679757833,5.50735569,-7.519601345,-36.22486115,0.313622892,17.15655327
1552,-0.145723358,5.064322948,-8.078289986,-18.43115425,-5.944865227,11.68922138
1553,0.08662454,4.830274105,-7.796169758,2.779093981,-7.226247311,5.839262009
1554,0.666306794,4.183336258,-7.893556595,30.89494324,-13.03918839,-2.538145304
1555,0.642755032,2.813605547,-7.968003273,52.45210648,-11.10929966,-11.29705524
1556,-0.499715567,2.369936943,-7.446232319,69.20863342,-2.895599365,-16.03408813
1557,-0.760251939,3.612561226,-7.836136341,89.24681091,5.584606647,-21.43452072
1558,-0.229478061,5.560060978,-8.449883461,102.166214,2.998133183,-21.5725441
1559,-0.029157968,5.608664513,-9.739610672,102.2338715,-6.473786354,-18.24555016
1560,0.43505913,4.093998909,-10.58708286,104.3406143,-18.61930847,-15.49871159
1561,0.567649126,3.503996849,-10.9484148,105.6315536,-24.48740387,-13.96722221
1562,0.002043257,3.930413961,-10.76401806,109.1167831,-17.60964966,-14.74664021
1563,-0.386585355,4.41119194,-10.3023634,109.6608353,-16.28046036,-13.32779026
1564,-0.330484986,4.496006489,-9.860477448,99.81976318,-15.38795662,-9.050172806
1565,-0.386132002,4.329092026,-9.669160843,79.22074127,-12.39803886,-3.71436739
1566,-0.618933737,3.951397181,-9.510409355,62.08181763,-8.856565475,3.890379667
1567,-0.995948792,2.874743223,-9.403569221,51.67367554,-5.616388321,8.102348328
1568,-1.298688531,1.917528749,-9.578409195,50.55739594,-9.465647697,7.90086937
1569,-1.472784162,1.966867805,-10.01360989,52.4580574,-14.09597588,6.920650482
1570,-1.474491239,1.836510301,-10.44503212,53.06365585,-12.13325405,6.540181637
1571,-1.325609446,1.998864532,-10.83076763,55.94340897,-4.931774139,6.222136974
1572,-0.899178624,2.151758909,-10.83603859,47.02851486,2.543783665,5.832659721
1573,-0.886645496,1.799194336,-10.38987923,37.91331482,13.86048126,5.48526001
1574,-1.205536246,1.526670337,-9.599199295,39.01744843,23.1628685,1.120000005
1575,-1.137952328,2.090468884,-9.188842773,46.40251541,29.21243668,-5.096090317
1576,-0.739132524,2.418184042,-9.136675835,47.264328,27.91508484,-7.592115879
1577,-0.368551373,2.388763189,-9.375244141,39.70011139,19.63827705,-3.989890814
1578,-0.577173889,2.362817526,-9.048927307,26.91322136,11.69929218,7.923788548
1579,-0.575232446,2.009944677,-8.745567322,9.193024635,6.009861946,16.91404915
1580,-0.014104061,1.848656416,-9.175012589,-7.096795559,-1.219940901,17.70457077
1581,0.092571229,1.290232778,-10.08167267,-15.94497776,-4.844707966,14.73731709
1582,0.53630197,1.083993793,-10.38069725,-24.32804108,-5.003535271,7.655462265
1583,0.147926092,0.883855283,-10.58886433,-30.67530632,-2.442928791,6.902710915
1584,-0.318543732,1.405372143,-10.67490864,-33.79025269,4.90604353,8.399554253
1585,-0.083957106,1.819286823,-10.57733536,-40.2262001,5.206375599,4.70536232
1586,-0.816447794,1.119173527,-10.10504818,-44.10876846,2.600270033,4.295228004
1587,-0.978525877,0.431270152,-9.844639778,-44.68568039,1.723913074,3.374880791
1588,-1.191168666,0.072430022,-9.454416275,-39.87217712,-1.406061888,2.294500828
1589,-1.081608295,0.08617276,-8.917377472,-31.80438423,-11.94479179,-0.308986455
1590,-1.132402778,0.335926294,-8.790835381,-18.1404438,-21.24363708,-4.18982029
1591,-1.475074768,0.819157302,-8.943826675,-7.653915882,-21.72978973,-9.713438034
1592,-1.345653653,1.024100423,-9.331840515,-3.834336281,-15.11672306,-13.81270123
1593,-0.812852085,0.740299225,-9.113059998,17.52562904,1.042349458,-15.67995262
1594,-0.770767272,0.21565792,-8.813289642,48.71305847,21.64791489,-17.67863846
1595,-1.207737207,-0.239753008,-9.261627197,91.31847382,51.36864853,-28.39830589
1596,-1.632735014,-0.98734355,-10.12452698,117.5793304,54.48594284,-38.28018951
1597,-1.340973854,-1.780385971,-11.14335346,130.9617004,41.58598328,-45.9065094
1598,-1.00270462,-1.211326003,-11.6367588,139.1465302,20.48552322,-52.90958405
1599,-0.366255939,0.207754076,-10.47145653,144.1802826,18.75900841,-55.29929352
1600,-0.056556843,0.000600845,-9.129238129,142.3217163,28.47713089,-51.00995636
1601,-0.441927791,-0.589505315,-10.22263241,168.4823914,30.42149544,-53.30752182
1602,-0.493153572,-1.142637491,-12.0910368,193.8260498,21.21478653,-57.6090889
1603,-0.340439528,-1.585716367,-12.77306843,201.7915344,14.22327709,-56.21986389
1604,0.407629877,-2.104117393,-12.64678669,188.5763092,2.978220463,-48.36494064
1605,1.142365098,-2.262329578,-12.63120461,160.5897522,-10.84412956,-39.38961411
1606,1.279581666,-3.661068678,-11.98606873,155.6053162,-25.7179451,-40.41897202
1607,0.871402025,-3.544403791,-11.33730507,162.2254028,-42.75295639,-49.23376846
1608,-0.050444111,-2.582250357,-10.72427845,159.7291718,-46.23808289,-46.8093071
1609,0.033177171,-2.526487827,-10.17733288,149.9273682,-38.11637115,-36.46735382
1610,-0.428661048,-3.308542252,-8.474578857,143.2562714,-17.26198578,-27.73126793
1611,-0.166264206,-3.731575012,-7.126655579,134.7478638,-13.21937943,-19.32222366
1612,0.004019801,-3.31380415,-6.938939571,106.7185516,-24.71670914,-10.81701279
1613,-0.496020466,-3.120108128,-8.167147636,67.38654327,-35.16888428,-2.546140194
1614,-0.818952382,-3.252132893,-9.909630775,34.89442444,-36.12346268,-2.851198673
1615,-0.796755731,-3.752256393,-9.859967232,14.22875023,-13.88781166,-9.968601227
1616,0.354555398,-4.323251724,-8.804104805,3.128623724,8.859581947,-4.750375748
1617,1.305154443,-3.739408255,-7.426139832,-7.590840816,9.543381691,7.528813362
1618,0.693915486,-4.419298172,-7.388665199,-29.56103516,0.712619126,20.56101799
1619,0.267455548,-4.381098747,-8.590819359,-45.94592667,-10.83795834,26.51781082
1620,-0.047365379,-4.095859528,-9.232089996,-65.03621674,-6.847106934,27.62837029
1621,0.354718536,-4.053769588,-9.318935394,-82.42781067,-0.663341939,29.19149208
1622,0.650183499,-3.34695673,-8.919876099,-88.81498718,3.940869808,33.58309555
1623,0.031993918,-3.051369905,-9.460786819,-95.54543304,11.32383347,40.26948166
1624,-0.499894261,-2.209126711,-10.21910572,-102.3438263,16.0423584,44.10890961
1625,-1.191295743,-2.444065809,-10.36739254,-101.5384674,18.30354881,43.9461441
1626,-1.431727409,-3.240152359,-9.877039909,-93.2696228,23.0700531,40.04306412
1627,-1.262301326,-4.184737682,-9.273791313,-71.74240875,22.64950752,34.24168396
1628,-1.255707979,-4.005796432,-9.008008003,-55.95277023,16.92399216,30.30801201
1629,-1.397296071,-3.132279634,-9.156561852,-53.36662292,15.38939476,28.11297226
1630,-1.67616272,-2.894757986,-9.874108315,-54.40932465,13.78174973,24.47792053
1631,-1.407793999,-2.668514252,-10.65239906,-58.9450798,9.226267815,17.96977043
1632,-1.486668229,-2.115710497,-10.59708881,-62.78058624,7.564359665,10.00139141
1633,-1.668877959,-2.597754717,-10.27908897,-66.49256897,6.422805786,1.483011484
1634,-1.595201969,-2.690871477,-10.22356319,-72.3584137,4.03280735,-5.20639658
1635,-1.318496346,-2.444621325,-10.66961861,-78.83248138,3.409266472,-7.48511219
1636,-0.655841112,-1.879535317,-10.92625141,-87.13347626,12.80417919,-6.40419054
1637,-0.316349119,-1.020865202,-10.44291401,-93.46073914,24.67136574,-5.383974075
1638,-0.505231023,-0.298875034,-9.958981514,-99.24467468,27.3559761,-2.934844732
1639,-0.701764047,-0.389627934,-9.719836235,-96.18859863,28.44428635,-3.044478416
1640,-0.623422027,-1.08194375,-9.973294258,-78.1174469,24.37952995,-10.1851263
1641,-0.533033907,-1.542170405,-9.66031456,-48.05936813,14.32003403,-17.43642044
1642,-0.509331107,-1.063702464,-9.207929611,-20.50745201,1.073418617,-21.3320694
1643,-0.575850308,-0.093164921,-9.344762802,-6.501277447,-9.126187325,-20.48687553
1644,-0.549527287,0.480263144,-9.980154991,-4.128339767,-15.08078671,-17.81894112
1645,-0.457644433,-0.424215496,-10.96132946,2.159296513,-20.66723633,-16.6089592
1646,-0.116621226,-1.677322388,-11.19592285,22.35968399,-23.22381592,-16.05501938
1647,0.057266489,-2.755668402,-10.93317509,49.19875336,-24.74943733,-18.28256416
1648,0.218612805,-2.583157778,-10.41490269,70.71289825,-26.88996887,-21.13247871
1649,0.112064406,-1.831389546,-9.869127274,79.20259857,-26.63778687,-24.58816528
1650,-0.38982293,-0.358659357,-9.156571388,82.70082092,-24.44524193,-27.41496658
1651,-0.829811335,1.195047021,-8.623616219,75.48291016,-22.3900013,-28.33336067
1652,-0.773137152,1.672292709,-8.625980377,58.17947769,-29.50951576,-26.42929268
1653,-0.824562073,0.889216244,-8.774707794,43.87398911,-39.28312683,-24.17532539
1654,-0.114763632,-0.653488934,-9.112760544,36.20744324,-43.86129761,-14.27153587
1655,-0.458963692,-1.977573037,-9.786090851,29.03578377,-36.33605576,-4.81250906
1656,-0.864984632,-2.469871283,-9.876683235,21.63303757,-19.77687263,9.347186089
1657,-1.221997619,-1.196538806,-9.07923317,11.65597057,-4.289401054,23.04841042
1658,-2.781663656,0.21772176,-9.403676987,-15.14068031,17.13779449,24.51088715
1659,-2.29117918,1.03655529,-10.31539536,-55.92136002,22.92996216,28.7396946
1660,-1.29580164,1.820482254,-9.878130913,-92.4012146,28.15405655,33.31613922
1661,-0.968389392,1.616587162,-9.54582119,-107.1348953,30.28246307,38.93692398
1662,-0.253656954,1.440150738,-8.984550476,-120.2212067,26.83986473,51.766819
1663,-0.977978766,0.661700726,-9.462669373,-134.9532471,26.69575691,63.15010452
1664,-1.497936487,0.287064433,-10.73400974,-144.9385071,33.82698441,69.81500244
1665,-1.370076656,0.982664466,-10.57946014,-153.5175934,40.06678772,66.92089844
1666,-0.75805676,1.334415197,-11.07670593,-164.994812,32.33441544,64.89511108
1667,-0.583918273,2.037331104,-11.33355427,-171.309494,18.05909348,61.50031662
1668,-0.111659847,2.400089979,-11.16763783,-179.8153839,3.905986786,62.44458771
1669,-0.629047811,1.996633053,-11.28739071,-181.6842346,-8.334886551,61.87399292
1670,-1.123087287,1.623842597,-10.9848938,-178.2641754,-15.91331673,57.99943924
1671,-0.601179183,1.677963614,-10.28431225,-170.9200287,-15.70568562,53.71669769
1672,-0.372783959,1.868138909,-9.383707047,-157.5880127,-15.93233871,46.48564529
1673,0.083146513,2.226783752,-9.044383049,-138.7711334,-19.0820694,34.25982666
1674,-0.040410448,3.868406773,-8.929901123,-113.7806473,-18.0334816,25.05703926
1675,-0.506772518,5.269403934,-8.792775154,-92.02272797,-13.46513844,21.84830856
1676,-0.708992064,5.922840118,-8.192302704,-79.97161865,-6.2169137,25.04201889
1677,-0.268010288,4.713811874,-7.838411331,-72.88510132,0.932910979,26.14919472
1678,-0.400857329,3.552881002,-7.89796257,-58.91586685,6.415302753,21.73276901
1679,-0.504703939,3.06935811,-8.472743988,-45.80975723,12.80408001,15.91863537
1680,-0.123432912,3.779577255,-8.422208786,-22.74215698,20.30145836,5.028697968
1681,0.556082368,4.437204361,-7.935761929,4.698953152,21.02127838,-6.538146496
1682,1.319127083,3.907362223,-7.739481926,37.07889175,10.74930477,-14.16948414
1683,0.45217073,2.965770721,-7.423285961,71.17793274,10.4994278,-20.32049561
1684,-0.215861216,3.812204599,-7.656141758,95.15549469,15.63168907,-23.01560593
1685,-0.378638476,4.311825752,-9.009552956,100.0391235,17.39454079,-26.43460464
1686,-0.22174488,4.817293644,-9.698942184,98.23255157,16.26191902,-30.26790428
1687,0.259397149,5.141918182,-10.03519058,91.0928421,-0.356982052,-29.17917633
1688,0.746837437,5.014164925,-10.8723278,91.20320129,-17.16334724,-22.89236069
1689,0.545259237,4.517545223,-11.16334057,87.70941162,-27.09282684,-17.31181526
1690,0.217874467,4.469947815,-11.08056355,83.69537354,-37.57893372,-16.4362793
1691,-0.591518879,4.211473942,-10.74744415,73.25025177,-42.64059067,-15.10164738
1692,-1.12087965,3.508945465,-10.65468121,57.24588013,-45.66087341,-9.927488327
1693,-1.556147575,3.044801474,-11.02440834,47.71656799,-34.72626114,-3.102446556
1694,-1.66204083,3.098060131,-10.73226261,41.94213104,-18.89772034,0.626440048
1695,-1.073091626,3.157104254,-10.09415913,40.87311935,-11.28332901,-3.497430086
1696,-0.847915232,1.851117849,-9.897714615,48.57076263,-5.712007046,-5.558035374
1697,-0.917817116,0.803375304,-9.883126259,69.15345764,-0.140110254,-9.296281815
1698,-0.722767413,0.651522756,-9.916788101,80.86917877,3.782188654,-12.69110489
1699,-0.778388917,1.099744558,-9.687246323,81.56541443,0.395623207,-12.33172607
1700,-0.83820641,1.845193624,-9.739977837,70.98297119,-3.046346903,-8.533518791
1701,-0.725515544,2.570427895,-9.987039566,55.25029373,-4.955976963,-3.342884302
1702,-0.728043675,2.96084857,-10.09424973,43.00770569,-1.025340796,3.157439232
1703,-0.635365844,2.827706575,-9.650027275,33.90868378,8.562941551,10.03012085
1704,-0.886993706,1.954705596,-9.21505928,33.47172928,13.8553791,14.63235664
1705,-0.31841135,1.256047487,-8.792168617,39.80639267,4.201123714,14.24547577
1706,-0.364444435,0.551754355,-9.312651634,41.6423111,-7.056227207,14.5884304
1707,-0.606022894,1.15701139,-9.911473274,36.2062912,-6.816478252,10.34356403
1708,-0.129239038,2.141320229,-10.06308746,26.17879295,-1.456860304,3.523394108
1709,0.083362803,2.310572863,-10.64700413,16.21916389,2.01422286,1.648216963
1710,-0.551914454,1.998915076,-10.43579292,7.562742233,8.549357414,7.683942318
1711,-1.323101878,1.813073516,-9.475105286,3.452238798,11.65351486,17.65698624
1712,-1.222890973,1.914927959,-9.414341927,-4.636214733,12.18109322,27.6057663
1713,-0.582587481,1.803832889,-9.391989708,-21.48389053,10.51035881,25.77173805
1714,-0.718504488,1.379747272,-9.050993919,-36.86075974,5.906200409,22.62724304
1715,-0.807099938,1.0106498,-8.89514637,-44.41106415,5.345733166,17.16004372
1716,-0.788397253,1.618601561,-8.904301643,-46.77663803,5.868671894,9.043801308
1717,-1.08144784,1.897081971,-8.900507927,-47.93776703,3.157099962,12.01112843
1718,0.179708987,1.772999048,-8.946380615,-51.91256714,-16.6088829,10.09973431
1719,-0.0487931,0.541317761,-9.104169846,-40.305233,-43.43009949,10.94417477
1720,-1.491647601,-0.302640378,-9.29824543,-25.69783592,-58.57793808,7.864943504
1721,-2.193170309,-0.088626698,-9.635860443,-15.73667717,-60.25749207,-2.287354231
1722,-2.066552401,0.374818802,-9.971514702,-16.68554878,-51.02820206,-11.35825729
1723,-1.73317945,1.210845709,-10.07460976,-11.69329548,-38.39024734,-18.19756889
1724,-1.738913536,1.970540047,-9.749403,2.325563431,-20.68169785,-22.12612915
1725,-1.665647149,1.897997856,-9.158782005,15.51491451,-0.829886019,-24.9688282
1726,-1.449571848,1.068239093,-9.593235016,23.46372604,16.82161522,-26.65469742
1727,-1.314671278,0.357474089,-8.952513695,41.31584167,31.82933426,-32.07060242
1728,-1.212825179,0.130858183,-8.102291107,70.53359222,42.87533569,-41.35651398
1729,-1.139868379,0.484699041,-8.539506912,112.8338089,51.29294968,-51.15095139
1730,-1.608658671,-0.285921365,-9.952462196,143.6996307,50.96433258,-57.18248749
1731,-1.5769068,-0.906860113,-11.11427593,134.7266083,39.54520416,-54.43374634
1732,-1.291958451,-1.800325155,-10.99205589,125.3624268,37.00826263,-51.14279556
1733,-1.154553175,-0.472926974,-10.90377903,115.2144623,28.94899559,-50.58118057
1734,-0.746307373,0.480761737,-11.03204823,110.9221802,24.09865761,-50.45859909
1735,-0.227209449,-0.430982649,-11.15804195,104.2707214,20.96039009,-48.82289124
1736,0.484439969,-1.332672358,-11.2799511,108.5415726,16.22313499,-48.08729935
1737,1.228006721,-1.266365409,-11.90259171,111.9760666,10.42707539,-46.26209259
1738,0.930437088,-1.786416888,-11.89762402,114.6180725,4.420144558,-45.8805275
1739,0.464667678,-2.26259613,-11.10534573,118.5039597,-9.731561661,-46.99253845
1740,-0.651352882,-2.600431919,-10.54293346,121.1840973,-19.21981812,-40.50531387
1741,-0.752435088,-2.830317974,-9.666496277,119.7183151,-30.56674957,-30.95109749
1742,-1.138562918,-3.453591347,-9.593325615,106.0996857,-37.75605392,-21.90081406
1743,-1.054744005,-3.700913191,-9.833224297,89.62379456,-40.95052719,-20.93055534
1744,-0.977366269,-3.251900196,-9.428530693,77.6873703,-36.61080551,-24.03736877
1745,-0.822682023,-2.312642097,-8.714354515,65.14848328,-28.12994385,-25.05778122
1746,-1.03539598,-2.265256405,-8.585352898,45.27685165,-20.97108841,-21.53468895
1747,-0.792084932,-2.425777674,-9.408288002,16.03242683,-17.31326485,-14.0171957
1748,-1.037991643,-3.280175686,-8.755351067,-4.312623978,-11.33592415,-4.158243179
1749,-0.514799833,-3.518465996,-9.71773243,-27.55002403,-12.12114048,5.44489336
1750,0.142663464,-2.131036282,-9.685526848,-46.74729156,-9.620671272,9.952915192
1751,-0.11282935,-1.375678539,-8.817204475,-61.88829803,-0.049971074,11.72379398
1752,-0.327950746,-2.234679937,-8.774398804,-74.95458221,4.365377903,14.93552208
1753,-0.546999097,-2.304639101,-9.186149597,-75.61826324,3.674014807,17.2020092
1754,-0.740865827,-2.533466101,-9.81715107,-72.76160431,2.681281328,21.11002922
1755,-1.096076488,-2.12337327,-9.803463936,-60.84526062,-2.490314484,20.61540031
1756,-1.229751348,-2.096801519,-9.471443176,-52.93494415,-6.934928417,21.02250481
1757,-1.384144187,-2.205735207,-9.735182762,-50.24394608,-11.37123585,22.46043777
1758,-1.909298062,-1.578231454,-9.214903831,-43.44843674,-9.164099693,17.91200447
1759,-1.954422355,-2.138105869,-9.298948288,-42.56024933,3.313359499,16.47947121
1760,-1.265008688,-2.787516117,-10.02980328,-44.47240067,8.617378235,20.45482445
1761,-1.252875447,-2.932033062,-10.39979458,-41.98907852,2.782048464,23.41107941
1762,-1.901807666,-2.375524044,-10.64821148,-39.921875,-1.828881145,19.22186279
1763,-1.972434402,-1.176293015,-10.55814838,-45.72563553,-1.921025753,15.44572353
1764,-2.040799856,-0.37065658,-10.49980354,-57.4193573,1.019999743,13.76743031
1765,-1.96029067,-0.290445358,-10.80086708,-67.23055267,-0.362150341,14.19686794
1766,-1.841832876,-0.493042797,-11.07851315,-71.73051453,-1.168953538,12.99437237
1767,-1.882432461,-1.033909798,-11.08778954,-70.81175232,-1.548283577,8.187886238
1768,-1.761679888,-1.260784268,-10.97931099,-64.6419754,-3.01641345,0.761380672
1769,-1.746991634,-0.739274144,-10.65925598,-55.37075806,-1.832025766,-5.563068867
1770,-1.610031962,-0.280235589,-10.06070518,-48.30236816,2.852395296,-7.836853981
1771,-1.455310225,-0.129000485,-9.83450222,-42.11730957,3.275398016,-4.689272881
1772,-1.835538387,0.258634716,-9.802635193,-43.34225845,-1.245585918,-0.94451946
1773,-1.405996084,0.636477947,-9.615581512,-50.62525558,-5.085621357,5.532138348
1774,-1.370845795,0.567996025,-9.924992561,-57.9144783,-7.940617561,9.284846306
1775,-1.319878459,0.921678364,-10.65817547,-62.70784378,-7.248225212,13.04009056
1776,-1.444551229,1.153174281,-10.51913071,-64.17880249,-1.02893579,17.32498169
1777,-1.014791608,-0.471428275,-9.987154007,-63.72649384,4.17173481,21.44153786
1778,-0.695111513,-0.747074604,-9.840187073,-71.94249725,-2.223345757,11.38017845
1779,-1.483376503,0.157986417,-9.197177887,-76.67405701,-7.260397911,3.532308102
1780,-1.129305482,0.754901052,-8.659340858,-81.39810944,-10.19615555,8.639896393
1781,-1.316585541,1.297375679,-8.622976303,-78.9016037,-12.61667538,10.75681114
1782,-1.497581959,2.133444309,-8.321060181,-79.79679871,-17.45140457,12.09438896
1783,-1.104161143,2.601496458,-8.181168556,-84.44579315,-25.71674156,16.87576675
1784,-1.45225215,2.395148993,-7.897537231,-95.56269836,-30.33135033,18.14528847
1785,-0.934533358,2.179516792,-8.107638359,-96.17822266,-32.21775818,25.57655525
1786,-1.532417417,2.287379265,-8.001763344,-95.87542725,-30.99559021,29.77237892
1787,-1.605867386,2.673951149,-7.901167393,-94.68065643,-29.09821129,34.69005585
1788,-1.941105008,2.869768143,-8.18091774,-91.79486847,-27.78051949,37.88766098
1789,-2.343152285,3.067638636,-8.227604866,-84.12226105,-22.05671501,38.48152924
1790,-2.413974047,2.698227882,-8.340888977,-69.81602478,-17.2292881,34.18514252
1791,-2.248186827,3.154301405,-9.190155983,-45.17128372,-15.68682766,28.43468094
1792,-1.973354936,3.96044898,-9.372264862,-31.15234947,-18.9628334,25.58944321
1793,-1.513575912,4.333783627,-9.00182724,-30.35085869,-21.31805611,25.73578453
1794,-1.222437143,4.486213207,-8.509682655,-32.71207047,-16.18318367,30.00078392
1795,-0.659111679,4.786012173,-8.243000031,-43.10425949,-5.28260994,38.0372963
