PacketCounter,Acc_X,Acc_Y,Acc_Z,Gyr_X,Gyr_Y,Gyr_Z
598,3.027243376,-1.30659914,9.790280342,-7.946088314,41.30060196,1.382569313
599,3.845680237,-0.087491266,8.456448555,3.568930864,22.60733414,1.359422088
600,5.091871738,0.22057344,7.749114037,-1.937173843,17.63281441,4.779270649
601,5.540503025,-0.671167076,7.731556416,-9.763591766,20.56344986,12.86783886
602,5.053333759,-1.590432167,8.455486298,-14.31889629,31.56427193,14.40182304
603,4.302199841,-1.794492841,8.833847046,-12.31405067,48.74637222,7.616760731
604,4.099215031,-1.116699219,9.659496307,-12.37959385,57.47464371,-3.287193298
605,3.824369669,0.5578807,9.428178787,-13.76050758,46.36833954,-7.188604355
606,3.680058002,0.928486764,9.067869186,-20.16836929,29.14120102,-3.535035849
607,3.845341921,-0.141098902,9.64659977,-34.29105759,16.5041256,-0.338902563
608,3.96330142,-1.153234363,9.333849907,-64.93077087,14.91555691,1.571811914
609,3.793295145,-1.665332675,8.923407555,-70.48116302,2.788567305,4.258685112
610,3.69607687,-1.400978446,8.532271385,-69.86475372,-13.76975822,8.783240318
611,4.12368536,-0.565382957,8.387763977,-78.9352417,-19.71656799,12.94838524
612,4.782859325,-1.380451679,8.515704155,-101.2720337,-16.07775688,15.19036674
613,4.484510899,-2.369976997,8.582680702,-117.6860199,-13.151577,19.02906036
614,4.314350605,-2.483098984,8.530215263,-124.379921,-18.36071587,25.35621452
615,4.811676979,-3.11899662,8.116404533,-128.9920654,-30.03446007,27.0339222
616,4.71465826,-3.773919106,8.019798279,-133.8004456,-30.71505356,28.81873322
617,5.027024746,-3.544169188,7.891705513,-148.4206848,-27.25030708,31.07567406
618,5.233431816,-2.195835114,6.125238419,-153.0768585,-38.29789352,33.86615753
619,5.435533524,-2.24535656,4.912690163,-149.3413391,-55.38405609,38.29558182
620,5.736762524,-4.836194515,5.308820724,-174.9563751,-50.61668015,39.55960846
621,5.691529274,-6.915487289,5.10414505,-227.7640381,-26.49302483,39.77900314
622,4.49433136,-4.998289585,3.291499376,-247.3927917,-22.98200035,51.19797897
623,4.135831833,-5.021814346,2.399524689,-239.9559631,-30.39841652,58.67086029
624,4.722041607,-7.595002651,2.207062721,-247.7610931,-38.5426178,57.56652832
625,4.969303608,-9.080586433,2.637854338,-255.3046112,-32.79529572,58.18365097
626,5.30909586,-8.733023643,2.28954649,-253.8394165,-24.69569778,59.65746307
627,4.649988651,-8.170730591,0.934364319,-246.8450623,-10.54531002,62.22468567
628,3.743405104,-9.222846985,0.479430258,-245.8936462,7.611082077,66.20436859
629,2.82668519,-11.37369823,1.109742999,-247.4160309,5.076366425,70.48901367
630,3.366075993,-11.24972725,1.239961147,-242.7247925,-2.270261526,67.83463287
631,4.354013443,-10.47033501,1.105322838,-224.9129181,-17.7391758,68.72013855
632,2.917864561,-9.933742523,0.998529911,-196.4562073,-27.04507065,64.73936462
633,2.27556324,-8.805636406,-0.232959524,-166.00177,-31.90503693,64.48467255
634,2.036995411,-7.137684822,-2.217856169,-139.1811371,-33.21385193,60.16725159
635,2.022532225,-8.51928997,-3.792954922,-149.0951996,-23.64644241,63.51266098
636,1.635613203,-10.12398338,-2.396393538,-176.3978729,12.39558315,57.0288887
637,0.702239096,-9.670679092,-2.316048622,-191.3589325,16.41125679,56.01541519
638,1.071955085,-9.153851509,-3.663036346,-166.1742859,0.406773537,54.56114197
639,1.570247889,-9.247027397,-2.476975918,-155.1000977,12.08495617,58.86067963
640,0.88611716,-8.6697855,-2.327179193,-168.959198,8.601742744,58.95619202
641,0.597036183,-8.050303459,-5.277267933,-170.7303619,-0.913192809,62.04930496
642,-0.29244864,-8.826108932,-5.008362293,-173.6464691,22.91199112,71.55116272
643,-0.596824944,-8.623723984,-3.616428137,-204.0690918,27.75853348,75.88269806
644,-0.379621863,-8.702198029,-4.757370472,-218.0370026,3.281930447,72.50911713
645,-0.134298727,-8.988555908,-5.208502293,-199.1580811,-7.813156128,72.41511536
646,-0.407605231,-9.310027122,-5.178350449,-188.1422729,-8.824495316,67.92150116
647,-0.874714613,-8.53537941,-4.741726875,-198.444931,-1.045261145,64.88174438
648,-1.443651795,-7.571635246,-6.76568079,-207.219162,-22.32132912,66.18634796
649,-1.452605367,-6.604872227,-8.43775177,-181.8134308,-33.97746658,63.57570267
650,-1.247215748,-6.431044102,-8.296002388,-166.2370911,-32.05345154,54.63521957
651,-0.498979479,-6.146637917,-8.139026642,-156.4707184,-41.72849655,45.98929214
652,0.681785643,-6.740165234,-7.77220583,-151.0005951,-37.27412033,40.61473465
653,1.198502541,-6.38131094,-7.75659132,-151.1932678,-31.11102676,35.62601852
654,0.666127801,-6.779937267,-8.1575737,-154.1721344,-27.37348366,31.27625656
655,0.185884923,-6.690570831,-9.015365601,-155.4381866,-35.12038422,20.32889938
656,-0.538794398,-6.360636234,-10.12687302,-145.976593,-49.56015015,12.33612347
657,-0.737100065,-5.441928864,-11.23630238,-124.6847382,-52.21362305,8.510594368
658,-0.698053718,-4.956772804,-9.282191277,-115.4287491,-43.37319946,7.550229549
659,-0.581547141,-4.57510519,-7.440014839,-118.4028625,-46.9209404,10.53564167
660,-0.747120798,-4.176695347,-7.418577194,-116.2543259,-62.78783417,15.94844055
661,-0.484614879,-3.814684629,-8.20142746,-105.6482925,-73.29037476,15.25796986
662,0.102074496,-2.96443367,-9.047771454,-100.0821762,-65.77073669,6.878107548
663,0.860093176,-3.035962105,-8.414260864,-99.26953125,-55.85774231,-1.945168495
664,0.767547131,-3.941493034,-7.395266533,-99.04040527,-42.2949295,-6.439770222
665,0.554214954,-3.833242893,-8.463338852,-84.2580719,-33.95209122,-10.96537495
666,0.351752669,-4.09260273,-9.92493248,-46.2179718,-35.86727905,-24.73056793
667,-0.177435815,-3.336889505,-10.6336689,7.074228287,-41.72192001,-33.22854614
668,-0.216744453,0.41068086,-9.619481087,23.53607941,-42.46657181,-26.64835548
669,-0.618413806,2.189296961,-8.817993164,-0.214724883,-32.146595,-5.253492355
670,-0.717989206,1.368841529,-8.301879883,-30.48973846,-15.99587631,4.856374264
671,-0.300032705,0.765109301,-8.318628311,-38.87345123,-10.91029549,10.96562672
672,-0.288216412,0.944487929,-8.50818634,-37.4198494,-6.722092152,14.20951557
673,-0.699721992,1.103004694,-8.499153137,-44.02089691,-0.291308254,16.27127838
674,-0.810578763,0.531207621,-8.397880554,-57.49376678,3.906773567,15.94052792
675,-0.895855963,0.134632513,-7.915032387,-63.77254105,3.215268373,15.0041256
676,-0.299912751,1.082815528,-7.138203144,-66.04270172,-8.874591827,18.32360268
677,0.408310533,1.620518923,-8.271524429,-80.16107178,-6.60385704,20.34126091
678,-0.067452461,1.565603256,-9.33406353,-79.29550934,-0.106769122,24.19939232
679,-1.021562815,2.36076498,-10.42019176,-91.03510284,-7.088435173,33.35108948
680,-1.066865563,2.67061758,-10.62057209,-103.2236023,1.468496799,39.85870743
681,-2.137799501,2.814162254,-10.95276356,-104.7530518,12.61896896,41.73706055
682,-2.33855772,2.595026493,-11.32359791,-97.18968964,21.83397293,37.77314758
683,-1.713421941,2.350455523,-10.30164433,-95.39428711,38.8547287,34.56484604
684,-1.814463854,2.949958324,-9.231734276,-107.0296478,40.52039337,38.67974472
685,-1.798100948,3.255202055,-8.722703934,-121.1635132,31.88138771,42.86198807
686,-1.032880664,3.340330362,-7.777760029,-146.9519806,42.85968399,46.76005936
687,-0.761690617,4.632928848,-7.923892498,-175.6959686,39.39395905,50.32004929
688,-0.973476529,4.60668087,-8.6967659,-189.1510773,31.92663765,51.16148758
689,-0.451461375,5.023831844,-9.092985153,-188.1755524,24.84443855,47.38026428
690,-1.107721448,6.632874489,-9.036614418,-174.4185486,17.42602921,44.67525864
691,-1.951350451,7.595870495,-9.028772354,-173.4804993,14.61579609,42.9731636
692,-1.532403708,7.140191555,-8.675239563,-183.2518768,12.71525288,37.9083786
693,-0.909097433,6.071996689,-7.591590405,-186.5596771,7.994130135,33.9817543
694,-0.544994831,6.282696247,-6.8171525,-187.1192322,1.918959856,28.24115944
695,-0.507357955,6.291500568,-6.472703934,-162.9354858,-7.455761909,21.62763023
696,0.033319835,6.082668781,-6.094441891,-131.8375397,-17.3623333,16.08984566
697,0.473018229,5.628561497,-5.460831642,-109.4049149,-19.57089233,16.37530327
698,0.441277385,5.683292389,-4.884018898,-82.07455444,-28.71264458,19.88384628
699,0.436798662,6.124684811,-4.00617218,-60.62331772,-39.31500626,21.36720276
700,1.287662745,7.055308342,-4.823580742,-54.34093094,-51.2830162,18.32560921
701,2.143281937,7.260083675,-5.562741756,-41.48477936,-60.79795837,15.5240078
702,0.99368453,7.317289829,-5.388420105,-24.01977348,-49.21817398,10.94868279
703,-1.238217831,6.990343094,-5.583777905,-2.283270836,-41.02428818,7.564007759
704,-2.262887955,6.016320705,-7.012784481,35.38515854,-51.45225906,9.389894485
705,-0.985285819,5.620310783,-6.531130791,64.0078125,-38.10437775,4.723490238
706,0.869281709,4.401662827,-2.416552067,40.11319733,19.8684864,-20.73365974
707,1.730053067,5.883236885,-1.606090546,9.310274124,25.65922546,-44.90381241
708,0.82625103,9.548537254,-6.119311333,76.33071899,-27.06996727,-34.2711525
709,-0.147122338,9.237235069,-4.56529808,131.0258331,-51.91183472,-12.77842426
710,0.206467122,7.094493866,-2.177652359,57.16346741,-32.18908691,-8.513881683
711,-0.089424409,7.52473402,-6.208738327,40.01725388,-27.11680794,-16.51714134
712,-0.265288979,7.150262833,-7.396320343,108.2858124,-36.30369186,-23.15571785
713,-0.536373794,6.335591793,-7.608046055,142.5987854,-47.42543793,-19.84510994
714,-0.21518597,4.855147839,-7.660512924,134.4598083,-47.33158875,-25.52098274
715,-0.042878479,6.150177956,-8.158635139,112.7724457,-30.62774658,-34.211586
716,-0.688807905,7.942799091,-8.467896461,103.7147522,-19.13446808,-31.61324692
717,-0.460608691,8.198789597,-8.823943138,81.19901276,-10.88541794,-28.34156418
718,-0.074242994,6.670784473,-8.466220856,53.62234497,-12.2658186,-28.7093029
719,0.150019228,6.056560516,-8.122085571,22.23267365,-10.66632366,-22.98073959
720,-0.521802127,6.549101353,-8.8804245,4.948849678,-16.52474213,-13.80569077
721,-1.550219774,6.804456711,-10.42859459,16.27158546,-19.44441032,-3.069804192
722,-1.858561516,6.230182648,-10.55202866,18.95484161,0.058608346,5.978339195
723,-0.809579611,5.595221043,-9.045737267,15.11617851,35.40998459,5.816720486
724,-0.618263304,4.057787418,-5.898483753,8.204088211,72.79107666,-1.506810784
725,-1.350082397,4.546406269,-4.943857193,2.673493862,70.46130371,-4.470839024
726,-2.416372299,5.315804482,-6.913969994,12.2708416,30.56716347,1.726808548
727,-2.104844093,4.64682436,-8.593884468,27.45307732,-4.25976181,-0.810503244
728,-1.788035393,4.163680553,-9.072446823,41.19093323,-13.89234352,-5.320254326
729,-0.944420159,2.040832043,-7.721242905,43.18168259,6.15737009,-12.97456646
730,-1.891236424,2.901711464,-7.732134819,59.81949997,7.970034122,-18.66923141
731,-2.509004354,4.230164051,-8.241897583,79.96618652,-7.696211815,-18.96675873
732,-2.330054522,3.541289568,-7.830184937,71.17319489,-14.02958107,-18.54393387
733,-1.953513145,2.21916604,-7.318775654,59.61229324,-8.646992683,-17.8988533
734,-2.131360531,2.678488255,-7.266443253,56.04718018,-2.97879529,-22.86828613
735,-1.952795029,4.093868732,-7.377109528,55.88775253,-10.16525841,-20.91202545
736,-1.577490091,4.065623283,-7.706204891,48.26055145,-17.38958168,-20.77944756
737,-1.233389854,3.85796237,-6.795291424,43.758461,-10.72230053,-22.4840126
738,-0.879535079,2.797834158,-6.530871868,37.30600357,-0.878854334,-21.66851044
739,-0.174933076,1.291223168,-6.828133106,45.84512711,2.262577534,-25.65655708
740,0.206991732,1.388595462,-8.101303101,69.24712372,-3.192675829,-32.05409622
741,-0.428014398,1.416827559,-8.617186546,92.09326935,0.29834038,-32.99528885
742,-2.007191896,1.242331505,-8.575370789,87.25402832,6.088918686,-31.37004089
743,-3.619765997,0.886478066,-9.731223106,93.62688446,4.446122169,-38.78854752
744,-4.389323711,0.944853425,-11.15055561,123.5270615,11.46413422,-45.39087296
745,-2.910585642,-0.211809576,-9.005141258,158.1123352,12.3631649,-52.0597496
746,-2.080708504,-1.873553753,-6.734603882,162.3530121,23.61038971,-64.02251434
747,-1.772798538,0.10536918,-7.540873051,181.8197479,19.82938957,-71.54827118
748,-1.743862391,0.467387438,-9.149056435,233.0567627,20.64222908,-70.37306976
749,-1.225711346,-2.215389013,-9.626977921,251.4145966,5.321314335,-66.24303436
750,-0.774872005,-3.368054867,-10.53465271,252.7669983,-9.630336761,-62.7416687
751,-1.328680277,-3.440868378,-10.4685421,224.4160309,-4.376383781,-55.91518402
752,-2.118962765,-2.837913513,-10.63888741,181.7470856,13.54078865,-47.13205719
753,-2.703041315,-1.681393147,-10.19734097,173.0381775,18.41566277,-47.11359024
754,-1.916743279,-2.095582724,-9.25681591,168.2909241,18.56940651,-50.60107803
755,-1.613968492,-2.31071806,-8.115103722,157.7649078,27.33883667,-51.68794632
756,-1.220615149,-3.675266981,-8.805861473,125.6723022,17.39518929,-46.28988266
757,-0.985558391,-3.814445972,-9.333078384,102.6061249,16.65772057,-44.79755402
758,-1.708481669,-3.056766272,-9.967589378,91.12638092,13.18738461,-34.27328873
759,-1.361145973,-3.660886526,-10.11110973,68.9903183,6.276141644,-20.04363823
760,-1.634281158,-4.692149639,-8.49907589,41.66756439,10.69491768,-7.384446144
761,-1.584472537,-4.880678654,-7.281925678,-2.209050655,6.604005337,5.995049953
762,-2.568125486,-3.466110468,-7.21420002,-11.79200554,-2.091933727,18.56270218
763,-2.619047403,-2.676329374,-6.378825665,-28.46668625,-5.037989616,20.84858322
764,-3.271315575,-3.185065985,-8.599681854,-58.88280106,-18.6984539,23.61016846
765,-2.335675716,-3.139703751,-9.455327988,-81.43332672,-34.39070892,27.83036423
766,-1.149518251,-2.037403107,-7.633757114,-126.6463547,-37.92677307,36.11978531
767,-1.889607191,-2.069396973,-8.36196804,-189.3470154,-34.96194458,43.28390121
768,-2.757838011,-3.74593091,-9.66337204,-195.4731293,-25.37624741,52.35509491
769,-1.914405584,-5.066099167,-10.17438507,-166.0134125,-38.44169235,53.89733887
770,-1.452916145,-3.840178967,-10.50641537,-156.503006,-35.72083282,56.5760498
771,-2.665902138,-2.26277566,-10.24162674,-164.5405579,-27.30744362,60.41605759
772,-3.040139914,-3.327044725,-10.35649395,-154.1326752,-25.77802849,61.54571533
773,-1.620352268,-4.524932861,-10.54645443,-118.537262,-25.54253578,53.41360092
774,-0.145197108,-3.506274462,-11.42947006,-80.98623657,-25.20617867,40.93103409
775,0.84096837,-3.059470892,-11.72776699,-46.20201111,-27.2606411,30.60700417
776,1.163440108,-2.095337629,-10.2294178,-24.76664543,-28.03446198,21.91148186
777,0.715051353,-1.257117867,-8.627821922,-38.58908463,-20.99693298,13.21883106
778,0.488346905,-2.210393667,-9.986534119,-42.38756561,-10.14704514,7.52639389
779,-0.629605472,-4.060580254,-11.65997601,-26.3476696,11.81611347,-5.253525734
780,-1.745419264,-2.299593449,-11.05852985,22.03938675,32.68488693,-24.07657814
781,-2.13456583,0.683281958,-9.23984623,25.56253624,38.79483795,-24.2474575
782,-0.750788212,0.35694015,-6.774466038,-11.61866951,41.37760544,-14.47261047
783,0.046336085,-1.585690856,-6.684402466,-31.17967033,28.51451111,-20.08573723
784,-0.273035169,-0.904187143,-8.126041412,-21.64752197,19.40482712,-28.72769356
785,-0.123998538,0.954832137,-9.422308922,0.127609164,7.476664066,-23.94717026
786,-0.789070129,2.633930206,-9.672199249,2.608046293,2.747750998,-10.09056282
787,-1.765352011,2.522503614,-9.209023476,-23.84180832,7.800216198,-0.029096089
788,-3.324216127,1.057705998,-9.523514748,-22.93758202,10.43331242,-3.930482864
789,-2.854723215,1.751351833,-9.453761101,-11.14214516,4.685455322,-5.210483551
790,-1.773765922,2.739245415,-8.879172325,-29.49412918,-0.377583623,2.861363888
791,-1.524721146,1.964054465,-8.56625843,-50.26551819,-0.472289652,4.994681835
792,-2.422494888,1.310054302,-8.347028732,-55.33847809,-2.501863003,3.128862619
793,-2.911120415,1.570904732,-8.214409828,-56.55047989,0.966461539,7.408642292
794,-2.457230091,0.82047689,-8.562294006,-57.80206299,-4.024009705,14.13515186
795,-1.802616954,0.003796101,-9.337928772,-46.94651794,-15.47054577,20.67570877
796,-1.740296602,-0.639796853,-8.674576759,-33.71754837,-14.93793774,23.08485985
797,-2.191705227,0.283410013,-8.003047943,-32.63318634,-6.218457699,27.84477806
798,-2.090826511,1.0526191,-8.242144585,-37.12134171,-10.32357788,29.64818192
799,-1.687743545,1.60256207,-8.146673203,-48.18418503,-8.000144005,31.54922104
800,-1.837158442,2.349357128,-8.596119881,-70.99665833,-2.024421215,35.1725235
801,-2.1506567,2.983586788,-8.847747803,-90.23068237,11.60946369,38.69538879
802,-2.583239555,3.814526558,-9.070583344,-102.5713882,14.07178497,42.286129
803,-2.273142099,4.856102467,-9.406496048,-102.333847,7.4103899,52.35734558
804,-1.930662394,4.778095722,-8.367862701,-126.2021332,7.959648132,59.0172348
805,-1.885291815,3.530166149,-7.720785618,-162.243454,9.696762085,60.99242783
806,-0.981360912,3.586720228,-7.642049789,-184.424881,0.235418484,61.72793961
807,-1.23735106,3.557272911,-7.607538223,-191.97966,-5.970066071,63.26488876
808,-2.355946541,3.812630177,-8.514245987,-187.8929138,-15.93902683,64.25186157
809,-2.574623108,5.995475769,-8.980149269,-180.2486877,-26.65483284,68.72981262
810,-2.241499662,6.926886082,-8.762616158,-176.4236755,-25.80606461,71.42576599
811,-2.264980793,6.903419495,-7.892609596,-177.7293549,-22.78136635,72.05129242
812,-1.861372948,6.590274811,-7.482848644,-178.8258209,-11.83613873,68.29909515
813,-1.219336152,5.519210339,-7.48342371,-175.3858643,-2.204378366,57.50836182
814,-0.583479106,4.625904083,-6.821554184,-171.6598511,10.37389755,49.5041275
815,-0.976166964,5.101774693,-6.335107327,-153.9658508,12.23288345,47.04260635
816,-1.358786345,6.219344139,-5.446092129,-127.0461349,3.35069561,44.94832611
817,-0.774236143,6.538707733,-4.565279007,-110.4110947,-14.13616848,40.62496185
818,-0.09588097,6.790214539,-5.629498482,-75.31568146,-37.87168121,36.31343079
819,0.296273053,7.142013073,-5.77985239,-21.35774422,-53.8743782,30.96104622
820,-0.220022991,7.186090946,-4.462583065,1.382220745,-44.4865303,22.31925964
821,-1.255329967,7.07586956,-3.873234034,8.05305481,-24.26323891,7.369156837
822,-1.74299109,7.07600975,-5.291887283,22.3061676,-15.49797821,-4.513264179
823,-1.539818406,6.709610939,-6.786211967,67.21858215,-22.43357277,-10.77769947
824,-0.458805591,7.536935329,-5.050037861,92.78704071,-10.55826855,-22.70529556
825,0.912625849,8.113123894,-3.447232246,66.21435547,9.264162064,-33.86238861
826,1.287302256,9.481396675,-4.733101845,54.99671173,-3.824768543,-26.25393677
827,0.975132823,9.608337402,-5.604720592,60.32670212,-38.86226273,-8.508439064
828,0.237728789,7.665411949,-4.87498188,39.12701416,-31.91453362,-12.66863537
829,-0.495461643,7.226607323,-5.177348614,32.95246506,-28.2063942,-26.97943306
830,-0.875392795,7.534435272,-6.601656437,67.43536377,-39.95299911,-32.06457138
831,-0.591715991,7.317873001,-6.227675915,88.84693146,-38.78523636,-32.51037598
832,-0.495040983,6.769710541,-5.73310709,66.89891052,-16.34808159,-40.29427719
833,-0.922131538,6.194924355,-6.270286083,47.73624802,4.780083179,-42.4081459
834,-1.519995928,5.858077526,-6.157357216,43.30989456,19.0827179,-38.27604294
835,-1.324614882,6.427632809,-6.736545563,32.86717987,17.59493446,-33.63463974
836,-0.356521249,6.891306877,-6.998766899,13.27102566,1.097283602,-27.20350266
837,-0.92413193,7.247808456,-7.840411663,11.24929333,-25.17692757,-9.594559669
838,-1.246925235,6.4728508,-8.286456108,4.770206451,-28.6522541,2.493230581
839,-1.178209066,6.352633953,-7.656946659,-5.892074108,2.696191788,2.219910622
840,-1.072330594,5.929960251,-7.591572762,10.404953,18.23937798,5.948604107
841,-1.639161706,5.965278625,-7.190816402,33.10390854,32.99063873,8.096166611
842,-2.454711437,6.054724693,-5.423832417,29.63737297,38.19371796,-2.133311987
843,-2.153604746,6.084955692,-7.741771698,40.03927231,-12.26021099,-5.303398609
844,-0.692156374,5.283955574,-6.74993372,43.67959595,-6.42794466,-20.8457222
845,-0.650189698,4.331278324,-6.375884533,54.36647797,0.932104051,-33.04850006
846,-1.945996284,4.41580677,-7.661984444,85.8731308,-18.9719429,-33.56425858
847,-2.511636496,3.547890186,-8.434631348,97.6320343,-36.96130753,-33.96701431
848,-2.676710129,2.527064562,-7.725374699,101.0024414,-30.3146534,-38.59204865
849,-3.208338261,3.071725845,-6.663620472,105.0588531,-20.76738548,-43.69132614
850,-3.248070717,2.969027758,-6.266746521,99.85733795,-22.27898979,-43.97289658
851,-2.562799215,2.340059042,-6.186295986,94.72058868,-26.69552994,-48.06625748
852,-2.097904444,2.518942356,-6.371793747,89.53224182,-20.68468094,-48.6189003
853,-1.947643161,3.390993118,-6.822730064,86.68560028,-8.761265755,-50.12508774
854,-2.354099989,4.359802246,-6.989596844,84.79472351,3.391856432,-47.80560303
855,-1.643671989,3.633152246,-6.779922485,78.15828705,13.34313965,-47.6999054
856,-1.675625801,2.11016202,-6.345685959,77.37340546,19.55822945,-51.55299377
857,-1.885141253,0.146714658,-8.119715691,100.480484,5.129207134,-58.36234283
858,-2.368947268,-0.550325751,-11.13573742,132.5432587,2.673052549,-55.4112587
859,-3.89260602,-0.701928973,-11.74447632,153.9883423,37.06904984,-56.91350937
860,-4.384676933,0.221085683,-9.236642838,144.6953125,45.15792465,-53.56591415
861,-4.285578251,0.50467521,-8.376464844,148.2307587,35.50762939,-54.09621048
862,-2.864662409,0.723873079,-10.79825974,189.8755493,22.13648796,-64.76073456
863,-1.671048522,-0.783426166,-10.02779579,221.7698517,35.10604095,-77.21617126
864,-1.450595379,-0.185387105,-7.66650486,206.9940186,35.38380051,-75.16301727
865,-1.674427748,-0.70620203,-8.96743679,208.4734192,18.25045586,-69.55783081
866,-1.806583166,-3.377188206,-10.68610477,201.2650299,21.21706009,-72.42325592
867,-2.24537468,-4.763405323,-10.47910786,212.2197876,30.06216621,-75.47888947
868,-3.242461205,-4.61544466,-10.7083683,209.9511719,42.63803864,-73.4108963
869,-3.689450264,-2.847296476,-11.21043205,210.96698,39.64849472,-65.3923645
870,-3.153431177,-2.598157406,-10.49948502,195.7062683,35.00771332,-62.13634109
871,-2.057667732,-3.472305536,-9.042346954,166.027359,44.9151535,-57.84643555
872,-1.285654902,-3.591107845,-8.877649307,135.6348419,35.53861237,-50.394207
873,-1.994054794,-3.187431574,-9.492949486,104.6328125,20.74870872,-34.04776001
874,-2.08404541,-3.414542437,-10.08609676,96.68965149,20.77486229,-26.83731079
875,-2.04570961,-5.299017906,-8.23028183,62.87299728,25.67593002,-22.50953484
876,-1.973405004,-5.565564632,-6.888746262,33.65040207,22.40900612,-15.68435287
877,-1.908470392,-4.815524578,-6.756864071,11.70829201,19.30706787,-4.717772007
878,-2.498563051,-3.653770685,-7.149200439,-15.25153446,13.39076233,2.874965906
879,-3.142242432,-2.996535778,-8.445169449,-47.63804626,-2.477735519,7.881221294
880,-1.726725817,-2.956362963,-8.148004532,-78.10878754,-14.72282124,11.36068726
881,-0.143896639,-2.781855106,-7.101946831,-133.2155304,-20.38412476,19.50976944
882,0.119779646,-3.187714815,-6.494091034,-166.0415192,-17.24833488,27.99290657
883,-0.685947478,-3.701411963,-7.291236401,-170.4610748,-21.60716248,32.5803566
884,-2.231024981,-4.579545498,-9.396437645,-166.6122284,-44.75821686,43.53806305
885,-1.695379138,-4.126806259,-11.56002522,-173.7366943,-50.38307953,50.19028854
886,-1.2825073,-3.608000278,-11.15226841,-177.5080566,-25.59340477,53.02445984
887,-1.709662557,-3.105067015,-10.2450285,-178.6658325,-7.029297829,54.48139191
888,-1.746263266,-3.182387114,-10.18500805,-171.6080322,-0.961136997,55.38203812
889,-1.166378021,-3.299283981,-10.19269943,-150.3476715,6.44052887,54.16180801
890,-0.968883574,-3.958202362,-10.36599064,-132.5329285,9.111512184,46.02418518
891,-1.118946791,-4.043431759,-8.606711388,-102.0875092,10.84882641,33.70793533
892,-0.614118278,-2.827165604,-7.75001955,-69.05323029,2.56387496,27.51172066
893,-0.169628665,-2.404887199,-8.768862724,-41.0303154,-2.417752266,14.88232327
894,0.074015461,-3.409056664,-9.973602295,-25.98614311,4.105642319,-3.168016911
895,-0.75397557,-3.856832027,-10.09965801,4.987546921,11.93108082,-13.26288509
896,-1.15937686,-1.625998735,-10.21579838,28.00321007,6.703040123,-13.29662418
897,0.053819336,0.57710433,-9.497733116,23.59896469,8.277576447,-8.789377213
898,0.655000985,0.22834824,-8.92226696,3.290817738,5.109602451,-9.960784912
899,0.295004606,-1.617304564,-8.391552925,-2.772425652,9.89988327,-19.81484985
900,-0.082292579,-1.096989393,-8.761671066,7.337968349,11.8667841,-29.13990211
901,-0.495777458,-0.355871379,-8.95557785,15.4302187,7.42438221,-32.86241531
902,-0.552014947,-0.207312554,-8.878578186,15.41870499,2.379550457,-28.88573837
903,-1.279307604,0.129566252,-9.302318573,16.44654655,-5.42713356,-27.28412056
904,-1.993546247,1.080926657,-9.104000092,17.40121078,-10.27420044,-25.29347801
905,-1.861231685,1.646478772,-8.723454475,9.155687332,-13.9547348,-23.63345528
906,-1.694354415,1.048728943,-8.58200264,-3.626537561,-21.24375725,-17.74412918
907,-1.679069996,0.993263066,-9.205715179,-11.69368744,-34.56676865,-5.41758585
908,-0.933327973,-0.660117626,-8.842229843,-32.73770905,-32.60270691,4.535870552
909,-1.008474112,0.812387288,-10.14247799,-36.19703674,-29.56414032,5.224282265
910,-1.103921056,0.663591623,-8.795005798,-45.11341858,-24.02663612,12.82058144
911,-1.988110781,1.131330729,-8.010075569,-67.94857788,-19.74228096,22.19230461
912,-1.484045744,2.030765772,-7.409929752,-87.64349365,-17.81588936,32.37649918
913,-1.572535038,3.433657646,-8.857284546,-86.37130737,-17.90210342,45.4665451
914,-1.392654419,2.642908812,-10.93544197,-89.53864288,-22.80988884,59.5084343
915,-1.896154523,2.206771374,-10.45738602,-113.5638046,13.40310287,58.0991478
916,-2.532543421,2.860207081,-10.36250401,-120.8063202,30.70315552,56.15995789
917,-2.668547869,3.826565504,-9.735870361,-123.2803421,33.85255051,57.10110855
918,-2.270931959,4.011824608,-9.149868011,-149.2383118,29.62281036,66.23384857
919,-2.269735813,4.283540249,-10.12805748,-175.8572388,25.90423012,74.86178589
920,-1.411231995,4.479914665,-9.857050896,-195.9266968,31.45206451,74.16118622
921,-1.015491962,4.042140484,-8.448502541,-221.4086456,44.41802216,69.31187439
922,-1.027136803,3.511279583,-7.157042503,-244.762619,54.01223755,58.84772873
923,-1.771410346,5.706994057,-7.920285225,-244.617981,35.79543686,58.0209198
924,-2.243160963,7.780850887,-8.519528389,-224.2012177,13.750494,56.88835907
925,-1.695709109,7.051525116,-7.483333588,-228.2311401,-4.351679325,57.57897949
926,-1.847819209,6.238275528,-7.052874088,-227.4972382,-22.25241661,55.64758301
927,-1.800020933,5.926796436,-7.278807163,-193.1781769,-32.40979767,54.83659363
928,-1.232582688,5.404526234,-7.092386246,-164.7867126,-32.96867371,53.01740646
929,-0.361795723,5.083351135,-6.599930286,-131.5331268,-36.21356964,49.89775085
930,0.112254761,6.089390755,-5.508466721,-103.8311691,-37.40266037,40.71525192
931,0.966908514,6.976314068,-4.412815094,-97.03850555,-34.64877319,26.93673134
932,1.019005775,7.075871468,-5.400246143,-73.64790344,-41.76562119,19.81263733
933,0.363356948,6.299310684,-5.406324387,-24.79476738,-50.9432106,11.56559372
934,-0.725823224,5.617044449,-4.316594124,11.41037655,-46.02423477,3.641226768
935,-2.206206799,5.620018482,-4.587718487,44.90816498,-43.56414032,-4.322868824
936,-2.081208706,6.402885437,-6.206551075,87.25845337,-46.39632416,-2.373021603
937,-1.146135569,6.078165531,-4.829205036,108.8036804,-28.44183159,-7.360894203
938,0.124278471,6.126886845,-2.390939236,82.9903183,5.287211418,-26.89907646
939,0.895439386,6.956279278,-3.989279747,70.66938019,4.574953079,-30.62322617
940,0.212855682,8.066063881,-5.073615074,103.6859512,-28.09377289,-6.730768204
941,-0.435938746,9.144366264,-2.800154448,95.87781525,-36.71248245,3.703817368
942,-0.585001588,9.299167633,-4.14577055,84.03227234,-47.07114792,-5.097080708
943,-0.461004913,8.305131912,-6.811443329,115.2354279,-64.84938049,-10.79646015
944,-0.595930219,6.317506313,-6.430586815,132.8282471,-59.24636459,-14.15330982
945,-0.814047337,5.39208746,-6.06109333,118.5754623,-46.86672211,-19.22257423
946,-0.353205562,6.074978828,-7.162150383,102.7404251,-37.49510956,-23.3359127
947,-0.142773286,6.583816051,-7.967809677,92.14927673,-28.91358376,-24.1812706
948,0.321178794,6.203650475,-7.8638978,72.51066589,-13.7697506,-22.39565849
949,1.164792538,4.935475349,-6.138925552,6.839086056,18.16578865,-15.95129013
950,-0.589668691,4.779166222,-8.550284386,-27.50358772,8.762111664,-0.72257483
951,-1.424175739,5.548885345,-9.185136795,1.652884603,-3.488733768,13.27030087
952,-1.004524469,6.531787395,-9.086361885,10.62948608,4.60871172,17.68317032
953,-0.814404488,6.432510853,-9.506372452,25.81870461,0.329771131,19.13532448
954,-1.565762281,5.57810545,-9.848107338,36.52670288,9.889039993,16.27816582
955,-2.045308828,5.106631756,-9.888980865,35.50383759,18.80920219,9.734978676
956,-1.913622737,4.700401783,-8.389450073,41.8690834,30.77809334,2.782058716
957,-1.370792866,4.446182728,-8.48816967,54.76495743,21.18423271,-1.289256573
958,-0.778664231,4.792595863,-8.099437714,62.22542953,15.48254871,-8.140463829
959,-1.281350493,4.636915207,-7.092799187,62.66611099,19.56487656,-15.01928425
960,-2.142406464,3.915064812,-7.792696953,61.63165283,2.073346138,-17.64438438
961,-2.841592312,3.656232119,-8.63465023,66.67952728,-23.59760666,-20.15123749
962,-2.526525974,2.969539642,-7.854829311,56.89256287,-28.2446537,-19.93473816
963,-2.331274509,3.551822186,-7.188914299,42.79350662,-29.00053978,-24.88541794
964,-2.501989126,3.967899799,-6.644616127,29.97299194,-40.94250107,-29.38579369
965,-1.473747253,2.348798275,-6.168336391,23.02833176,-59.03351593,-22.98799706
966,-0.987474978,0.920703173,-6.329108715,4.709805489,-56.97874832,-17.58506775
967,-0.507988513,2.155903578,-6.1025877,-2.132115841,-32.49975967,-23.57877541
968,-0.2213265,4.416232109,-6.199604034,24.31303024,-16.79071426,-33.24635315
969,-0.977705717,3.764855862,-6.199995041,39.96026611,-12.07674313,-45.83520508
970,-2.193944216,1.858981609,-8.186065674,52.64567566,1.292181849,-57.53257751
971,-3.062328577,0.7350263,-9.754023552,68.3170929,9.253610611,-63.35951996
972,-2.886934757,0.209521145,-11.26990414,91.91740417,23.30812263,-62.5647049
973,-3.197713137,-0.588087499,-10.05934238,113.5103302,35.41662216,-60.15993881
974,-3.527827024,-0.599774957,-8.813589096,134.2859497,36.56369781,-58.93190384
975,-3.093935728,-0.274149865,-8.030657768,147.0946198,50.09965134,-69.18953705
976,-1.470875621,1.345021367,-8.887947083,170.7869873,43.60570526,-79.56795502
977,-1.382601976,1.178857923,-8.660175323,196.5180817,42.74794006,-84.65863037
978,-2.446217299,0.798983276,-9.914139748,194.1807861,37.46340561,-78.68995667
979,-3.135993958,-0.67449367,-11.29786777,201.6646118,26.97356415,-73.02320099
980,-3.241775036,-3.333224297,-11.15190315,218.8835144,29.30501938,-81.60973358
981,-3.049012184,-3.515941381,-10.7379179,229.4703979,26.95957565,-82.03459167
982,-3.032771826,-1.059869528,-11.02968693,238.9065552,20.49703979,-79.23292542
983,-2.520911455,-0.297132581,-10.48289108,232.5329437,24.87881279,-71.62932587
984,-2.64755559,-1.60209918,-10.22902203,207.5406494,28.62589836,-56.64640808
985,-2.024535418,-3.749559402,-9.669174194,164.249115,26.7841568,-45.27897644
986,-1.415681362,-2.889243126,-8.696101189,131.0574188,20.53084373,-41.58509445
987,-1.891890883,-1.656727076,-8.699050903,104.7562485,8.436509132,-31.65498924
988,-2.402467012,-2.157269001,-9.063020706,61.37271881,-2.439235687,-19.95688629
989,-2.455362082,-3.282754898,-8.749908447,28.46748352,-3.152843475,-6.761402607
990,-1.521007657,-4.804436684,-7.389214039,-11.02713013,0.728726447,2.256114721
991,-1.545930862,-4.12833643,-7.552006721,-40.38965225,6.634388447,4.867550373
992,-1.778895497,-2.53151226,-7.642990589,-36.05204773,11.85978413,1.80902791
993,-1.619455934,-2.886445284,-7.25262785,-44.22867966,-16.46206284,15.65421104
994,-0.711084068,-4.0022192,-7.364061832,-99.08213043,-33.30775452,27.27147293
995,-0.41232729,-3.313397646,-8.476554871,-133.0946503,-21.05476761,28.95717812
996,-0.124948159,-3.114362717,-7.947796345,-131.4739075,0.022188401,25.50751114
997,-0.79509604,-3.619313955,-8.336945534,-128.845459,-4.366184711,29.71406937
998,-0.827976167,-2.735720396,-10.22349548,-120.9111099,-18.63386154,39.21475983
999,-1.098045349,-2.403686523,-10.74061012,-133.5668335,-16.65821075,47.57324982
1000,-1.556341171,-2.756482363,-10.65682697,-137.0570221,-0.525457919,47.61419296
1001,-1.494226813,-3.386094809,-10.47151852,-124.1962128,6.555250645,45.05279541
1002,-0.987345397,-4.155704975,-10.43210983,-99.63188934,4.094195366,39.18350983
1003,-0.419015765,-4.252293587,-10.15049839,-68.04715729,4.237518787,30.22556114
1004,-0.436603755,-3.111687183,-9.259036064,-44.28351974,0.653455615,17.25393486
1005,-0.239897549,-2.462306738,-8.779369354,-39.11453629,-3.143361807,6.364605904
1006,-0.674190342,-2.839097738,-10.10632229,-33.89890671,-11.11115932,-1.765542507
1007,-0.652763546,-2.09196949,-10.64638805,-30.29157448,-8.378497124,-10.27567387
1008,-1.292523861,-2.536826372,-10.23341179,-25.50639153,5.232404232,-17.79307747
1009,-0.923319757,-1.72899437,-9.890213013,-1.074748993,6.324419498,-20.24502563
1010,-1.019581676,-2.172034502,-9.150362015,7.710281372,-6.863428593,-12.8394022
1011,-0.739982784,-2.033045769,-8.277691841,23.67987061,-10.55281734,-19.67225456
1012,0.572327316,-0.647352815,-8.758942604,26.13949013,-18.36089897,-24.57736778
1013,1.070417881,-0.796865344,-8.273208618,8.148413658,-16.26722145,-21.00835037
1014,-0.586387634,-0.606812954,-8.177708626,6.194602966,-12.79163361,-18.36864471
1015,-1.841631413,-0.538355231,-9.151141167,5.362727165,-14.72072315,-18.7027607
1016,-2.182506323,-0.843149781,-9.860001564,4.628574371,-16.27653885,-13.81400204
1017,-2.030038595,-0.188799813,-10.00533485,-0.578181684,-15.45496082,-6.26074934
1018,-1.863625526,0.535160661,-9.753405571,-6.531409264,-11.30714417,3.287219286
1019,-2.303035975,0.941628039,-9.915805817,-17.27463913,-4.330435276,8.834275246
1020,-2.480559111,1.716140628,-9.993299484,-27.22844696,-1.410431743,12.91718483
1021,-1.891472459,1.382819414,-9.269889832,-27.27821159,0.333485097,20.88232803
1022,-1.60690105,0.721815407,-8.28416729,-40.70331573,2.117015839,25.30310059
1023,-2.072075844,0.754905045,-8.11425972,-41.17137909,-2.345976591,26.48679733
1024,-1.951640248,0.43038702,-8.399449348,-54.74501038,-12.9734087,32.20230484
1025,-1.977482796,0.890176415,-8.641880989,-58.7341156,-25.24629021,43.68648148
1026,-1.624080777,0.804622591,-8.836817741,-55.20952225,-36.37970352,51.04375076
1027,-1.839064956,1.181841731,-8.67918396,-63.79261398,-28.03117371,54.98513031
1028,-1.955315113,0.774248958,-8.38627243,-76.56685638,-9.335392952,54.56983185
1029,-2.153121233,0.95461148,-8.379154205,-90.76365662,0.852404177,51.77532578
1030,-2.01935792,2.497516394,-8.642407417,-98.48729706,6.04499054,49.49919891
1031,-1.675432563,3.291293621,-8.579810143,-100.5948715,11.02163982,54.86224365
1032,-1.871505618,3.395172119,-7.892855644,-126.5148849,16.92630768,61.5931778
1033,-2.083419561,4.454059124,-8.416183472,-157.276535,1.866837978,65.00610352
1034,-1.459925413,4.800447464,-8.40210247,-190.7359314,-8.778579712,68.54798889
1035,-1.063607216,4.875624657,-8.108986855,-220.5475311,4.771492958,65.54222107
1036,-0.800240874,4.351127625,-8.077310562,-225.637085,9.393479347,62.98928833
1037,-1.977424026,4.792810917,-7.836361408,-224.7007751,11.51561069,66.50215149
1038,-2.467102766,5.110635757,-8.178949356,-201.0423889,-3.108994484,69.90196228
1039,-2.420328856,6.347869396,-7.164274216,-191.3927917,-21.27958488,72.68923187
1040,-2.093649387,7.156085491,-7.695737362,-188.3079376,-30.89101028,71.04678345
1041,-1.450757265,6.697060585,-7.673015118,-189.6698151,-22.05721855,68.45142365
1042,-1.247161269,4.999415398,-7.284201145,-168.4382019,-21.74173355,61.03323364
1043,-0.539695501,4.821788311,-6.996961594,-150.7770081,-19.52823448,57.30405807
1044,-0.554748416,5.225662708,-6.8034935,-135.1116333,-7.860582829,56.64064407
1045,-0.467473418,5.676570892,-6.02812624,-112.6776352,-4.638813496,43.15899277
1046,-0.228190914,6.113554001,-5.147618771,-87.80332947,-15.37936783,29.71423912
1047,-0.377557963,6.586680412,-4.492590904,-63.72958755,-21.60824013,21.47754288
1048,-0.404674143,6.67088604,-4.38151741,-45.21640778,-23.17355347,17.72198296
1049,-1.159268737,6.603824615,-5.187794685,-10.37787724,-16.49523735,13.17306709
1050,-1.981757641,6.812184334,-6.420559883,40.89368057,-16.86535072,6.199244976
1051,-1.035207272,7.141283512,-5.230081558,65.77701569,-9.081175804,-5.411228657
1052,0.359864175,6.932320595,-2.707729578,30.51700211,20.85422134,-17.55399704
1053,0.379920602,7.315853119,-3.404563665,20.36696434,19.08976746,-24.60921288
1054,-0.126398191,8.659154892,-4.919955254,68.03333282,-12.66320705,-16.01904106
1055,0.064745776,8.93628788,-4.927027225,94.42588043,-18.74189758,-2.925475597
1056,0.443942755,8.692899704,-3.417768478,58.48663712,-3.857729197,-6.956147671
1057,0.238920897,9.103269577,-5.523898602,55.63153458,-10.8081255,-13.97030735
1058,-0.565424263,8.265068054,-7.723025322,104.606926,-26.6531353,-13.42122841
1059,-1.149672508,7.519737244,-7.738322735,133.2021942,-34.67069244,-7.493728638
1060,-0.547858059,7.391552925,-7.481824398,109.3053436,-28.54567337,-13.73223591
1061,0.022949433,7.974910736,-7.862241745,64.65821838,-13.31059933,-18.66234398
1062,-0.040264245,8.349456787,-7.932804108,34.9892807,0.94611901,-17.01642609
1063,-0.651293099,8.762271881,-7.425946712,10.30858803,0.932924032,-10.76895714
1064,-0.720211506,8.856298447,-7.00744915,-9.969249725,-7.48623848,-3.676026583
1065,-1.124197721,7.355914593,-7.18561554,-44.5256691,-7.715138435,-0.03711307
1066,-1.039503455,6.628944874,-7.579153061,-50.18719864,-12.18569088,6.066522121
1067,-0.798253655,6.716065407,-8.349281311,-31.09933472,-10.09387779,9.09027195
1068,-0.50233525,6.506457329,-8.360580444,-3.729582071,1.256348372,10.50070572
1069,-1.189787984,5.242402077,-7.058162212,15.31077957,22.39844704,3.375141621
1070,-1.771022558,5.701395988,-7.539545536,36.3972435,25.40262985,-7.036973
1071,-1.86300528,5.939785957,-7.620445251,47.41158295,17.15318108,-17.08017921
1072,-1.73959589,5.480534554,-7.252573967,51.78491974,0.851971686,-26.41853142
1073,-1.890122414,4.645231247,-7.112546444,64.76024628,-14.39777279,-30.80179024
1074,-1.086458206,3.738276482,-6.932127476,68.42997742,-11.88832474,-35.25619888
1075,-1.12025106,3.135934114,-6.47132206,66.79158783,3.927696943,-41.3799057
1076,-1.700248837,3.194507122,-6.262969017,81.01521301,10.28011227,-43.50710297
1077,-2.218643427,3.862772703,-5.478894234,92.41564941,5.150075436,-42.19971466
1078,-2.889032841,3.534198523,-5.331112862,97.58392334,-11.21909428,-37.87017059
1079,-2.011500835,3.409766436,-5.618320942,96.15816498,-29.47377205,-37.9575386
1080,-1.831121564,3.557896376,-6.655183315,76.74712372,-29.90744781,-34.0981636
1081,-1.476259589,4.206484795,-7.859998703,68.62730408,-18.90379143,-34.40097046
1082,-0.96848464,4.641850948,-6.999228001,76.66049957,-8.749501228,-32.68818283
1083,-1.23498559,3.578581572,-6.185043335,73.70980072,-1.796042442,-34.06391144
1084,-1.502712607,1.347741127,-6.612557411,83.68764496,5.895272732,-42.46218872
1085,-0.7443887,0.393913388,-7.311504364,92.32874298,9.805693626,-43.97289658
1086,-1.90734911,0.57310611,-9.329559326,95.86230469,-0.550758064,-40.36065292
1087,-3.135068655,1.121920943,-10.7142601,114.8014832,5.841609478,-40.78375244
1088,-4.370998859,0.68675369,-9.841684341,114.0237503,42.74678802,-52.35643387
1089,-4.455818176,0.862459064,-9.533847809,128.9450378,51.12928009,-64.40442657
1090,-2.384510994,0.61082238,-8.92016983,160.3483582,41.69561768,-71.85837555
1091,-1.591309309,1.083831072,-9.528534889,177.7022095,32.86438751,-69.19047546
1092,-1.890981078,-0.417622775,-9.605261803,194.355957,40.72295761,-70.06551361
1093,-2.095091105,-1.59275341,-9.608252525,203.3274689,37.77915955,-73.68275452
1094,-2.484850407,-2.027292013,-10.61506748,231.5925903,23.48725128,-74.40625763
1095,-3.086509705,-3.18418932,-10.39488888,252.3263702,17.94280052,-69.2151413
1096,-2.996717453,-4.404883385,-10.11485195,247.7237854,23.17078018,-65.45461273
1097,-2.626285076,-3.366111517,-10.22693729,244.0920868,32.71854019,-69.97969055
1098,-2.401923656,-3.176833153,-9.794642448,237.3282318,20.2003994,-68.2297821
1099,-2.118561506,-3.329724312,-9.015158653,201.6864319,24.41879845,-63.37895203
1100,-1.814039111,-3.40168643,-9.890872002,175.1664734,15.31361771,-55.32102585
1101,-1.58384645,-3.6234231,-9.839539528,149.0478668,17.1111393,-52.52264404
1102,-1.361777782,-3.211293459,-10.26687431,118.2130051,7.725459099,-45.41923904
1103,-1.552923918,-2.249919891,-11.31813526,105.4797363,7.089508533,-35.20820999
1104,-1.589026332,-2.808349371,-9.40440464,84.9861908,11.67686272,-24.83505821
1105,-1.708763242,-3.47922802,-7.090566635,35.99838257,15.90272427,-16.22633743
1106,-1.806105971,-4.542322636,-6.726408482,-7.748456955,13.90263844,-6.29969883
1107,-1.875866413,-4.257501602,-6.655862331,-36.26582336,6.474705219,7.25416708
1108,-2.086124897,-2.02170825,-7.391544819,-46.68499756,-0.325220406,23.50475121
1109,-2.125996828,-2.67117548,-6.51772213,-60.42811966,-7.634852886,33.52304077
1110,-0.777361035,-4.356414795,-5.149685383,-127.3903961,-21.50009537,39.51025391
1111,-0.302576572,-3.790156603,-5.824276447,-200.1175537,-19.89947701,42.00891876
1112,-1.078663588,-3.339670897,-7.376204967,-190.5659485,-21.82700539,48.77855682
1113,-1.526966095,-2.676346779,-9.39832592,-174.8349915,-34.74176025,59.35292435
1114,-1.454296112,-3.033052683,-11.21195412,-167.3305054,-32.46346283,65.36855316
1115,-1.702979684,-2.922024727,-11.68050098,-171.3982849,-19.20413589,61.57671738
1116,-1.992469788,-2.316734076,-10.52438068,-157.0366516,-10.78967285,58.66663361
1117,-1.614394665,-1.486579537,-10.44006348,-151.6602173,-6.970689774,60.16999054
1118,-1.242743015,-2.369089365,-10.73128223,-140.819931,-4.567019939,53.51995087
1119,-0.758621693,-4.561304569,-10.59128952,-117.2560043,-8.314856529,44.16482162
1120,-0.819565892,-4.504926205,-9.715471268,-88.27267456,-15.86820602,33.29237747
1121,-0.892148912,-2.637153864,-9.305847168,-70.88250732,-20.11413002,19.75941849
1122,-0.662217319,-1.44056201,-10.01559544,-68.64076233,-30.39356613,11.47787952
1123,-1.112605572,-0.914247274,-11.44717503,-60.36964417,-30.27062416,2.970269203
1124,-1.204446197,-0.613212168,-10.86200619,-52.06991577,-15.9571085,-4.235206604
1125,-1.016788721,-1.464794993,-8.890197754,-47.54274368,7.221591473,-7.014467239
1126,-1.074105501,-1.474990964,-9.546007156,-26.19219017,6.749815464,1.04272759
1127,-0.300165385,-2.017803431,-9.03724575,-14.42229843,9.503954887,1.679420233
1128,-0.083248079,-2.522389174,-8.755921364,8.563715935,13.70387268,-14.12355614
1129,-0.290807486,-1.608692408,-9.478259087,26.38791084,13.20970917,-25.18950272
1130,0.173531741,-0.0562746,-10.15150547,36.1043663,7.388997078,-19.61686516
1131,-0.88541621,0.636834443,-9.303939819,26.49381447,7.330783844,-16.52341461
1132,-2.078721046,1.10247314,-9.308861732,19.17904854,8.663542747,-21.56886673
1133,-2.594432354,1.332274914,-9.29746151,25.12313271,4.76996851,-22.25216293
1134,-2.3486588,2.458446741,-8.91162014,8.84958744,-5.024832249,-13.99250221
1135,-2.626918077,2.937284708,-8.83465004,-18.17133141,-16.08084297,-7.255364418
1136,-2.326619387,2.173280478,-8.740310669,-40.46452713,-24.85018921,-3.959242105
1137,-1.583230495,1.992944956,-8.749854088,-50.78039551,-27.38901901,1.456336141
1138,-1.676692963,1.327108622,-8.629977226,-47.52638245,-18.47493362,6.610858917
1139,-2.155015469,1.573929071,-9.236995697,-36.53304672,-13.14466572,10.74560642
1140,-2.212697744,0.030383997,-8.714209557,-33.49214935,-13.24373913,18.97587585
1141,-2.11611414,-0.293135941,-8.229383469,-51.89966583,-8.559366226,25.16690826
1142,-1.804741025,0.458799988,-8.292488098,-57.53163528,-14.1308012,31.27811432
1143,-1.888338208,1.920269728,-7.966317654,-62.09777832,-16.99124146,39.08419418
1144,-2.081563711,2.22399807,-8.290905952,-74.51935577,-21.70827675,45.33929825
1145,-1.916967869,2.17953825,-8.42991066,-88.26248169,-16.39987755,48.74911118
1146,-2.27951622,1.804792523,-8.580583572,-97.61619568,-5.295670986,47.09503937
1147,-2.566575289,2.356020451,-9.721804619,-93.11949158,-2.318678379,46.7243309
1148,-2.32046175,3.273991108,-9.638023376,-82.00183868,3.72567153,48.09219742
1149,-2.773585796,2.983454704,-8.720466614,-96.64363861,10.88010883,52.30270386
1150,-2.132535458,3.687891483,-9.30812645,-130.1147461,7.659697056,52.25331497
1151,-0.742021978,4.707986832,-8.691598892,-160.3638,8.388401031,54.45095825
1152,-1.055972219,4.069166183,-7.945227623,-163.7696533,14.43398285,56.97652435
1153,-1.453763604,3.175560713,-7.626633644,-160.7559967,12.16790009,55.53713226
1154,-2.152836561,4.931149006,-8.407665253,-166.6099854,5.359889507,53.52332687
1155,-2.156601667,5.74790287,-7.939210415,-162.5407715,0.794825137,54.47748566
1156,-2.138495445,6.191464901,-7.265930653,-156.0863953,-5.647877693,54.91785049
1157,-1.770061374,6.306484699,-7.909599781,-142.23349,-9.0129776,51.02670288
1158,-1.196835876,5.730342865,-8.012792587,-139.9161377,4.842361927,41.85472488
1159,-0.25713414,4.810134411,-6.400430202,-131.4767914,16.53225708,33.01343155
1160,-0.469941258,5.916597366,-4.464970589,-103.4424286,23.10363579,26.6681118
1161,-0.084249489,7.361514568,-4.463078499,-86.85305786,19.80910301,24.21989632
1162,1.131384134,7.191964149,-5.22606039,-60.183815,2.413090706,23.05069542
1163,1.284620643,5.796157837,-4.872148991,-33.39548874,-11.74089336,20.92511559
1164,-0.288726658,6.361683369,-5.687161446,-14.50309086,-17.20441628,16.80158806
1165,-2.113177299,6.587517262,-6.503801823,8.46069622,-9.124993324,10.72740936
1166,-2.492404699,5.893090725,-7.073067188,34.58127975,-2.151181698,8.868724823
1167,-1.255748034,4.574956417,-6.834803104,52.29128265,5.540011883,9.225370407
1168,-0.84469378,4.271294594,-5.240131378,45.67807007,20.25856018,-3.31669426
1169,-0.560772419,5.602045536,-4.270196915,27.61270523,29.99809837,-22.84572983
1170,-0.248849064,6.336295605,-4.818007469,44.8536377,20.55335808,-31.60001373
1171,-0.670168281,6.703552723,-6.315834045,96.83999634,-9.272420883,-16.93028069
1172,-2.041556597,7.537669659,-6.363818169,116.6191864,-28.33724213,-1.641153216
1173,-1.674236298,8.520394325,-6.283636093,95.8320694,-30.51255226,-3.856501102
1174,-0.822000861,7.690344334,-8.313934326,92.56616211,-40.10323715,-7.387173176
1175,-1.087391019,6.033651352,-8.856351852,113.3378143,-46.48944092,-8.033799171
1176,-1.287866116,5.679748535,-7.915369987,127.4133987,-42.55710602,-11.37911701
1177,-0.666582346,6.60092926,-7.903665543,121.5521774,-35.52173996,-25.81381798
1178,-0.560229659,8.105242729,-8.500115395,107.7906952,-33.61206436,-33.24373627
1179,-0.618821502,6.836808205,-9.04698658,74.87906647,-31.72674751,-31.00871468
1180,-0.325466216,6.873158455,-8.209609032,30.4376049,-32.4491272,-26.30690956
1181,-0.416400731,6.288939476,-8.424518585,8.489313126,-20.72343063,-20.60191154
1182,-1.008190274,4.98492527,-8.709841728,-5.684746265,-10.62188244,-16.3449707
1183,-1.364122391,3.066074848,-8.166212082,-7.752999783,11.57601357,-13.5813942
1184,-1.284150839,3.109133005,-8.734843254,3.699917793,11.49765968,-7.513505459
1185,-0.739178658,3.753179073,-7.849171162,18.59278488,18.60997009,3.701908827
1186,-1.042316437,3.354331017,-6.671099186,-1.017558455,33.53799438,8.955460548
1187,-1.33762753,3.262433767,-8.474887848,-8.487584114,7.856274128,13.12860203
1188,-1.170120955,3.460810661,-9.100551605,-7.658020973,-1.009281635,7.971603394
1189,-0.649928391,3.044712543,-7.908305645,-12.36380005,11.55294514,-4.241902351
1190,-0.880057752,3.313546658,-7.411578178,12.76077271,19.690588,-13.95077229
1191,-2.128237247,3.77581501,-7.689751148,40.06997299,15.44132137,-20.5936203
1192,-3.121597767,4.165157318,-8.758943558,51.88892746,-4.667428017,-20.25267029
1193,-3.031738997,3.441177368,-9.549851418,47.69994354,-12.7189064,-19.64591599
1194,-2.40296793,2.070267916,-8.504144669,42.66437912,-6.044774055,-21.25328064
1195,-3.109102726,2.240285397,-7.151226997,50.81061554,-0.491449624,-28.54962921
1196,-3.049779654,3.239008665,-7.423471451,56.15591049,-8.612650871,-35.6688118
1197,-1.978576541,3.047355652,-7.858930111,62.58761978,-19.22438049,-34.67684937
1198,-1.237548113,3.626632452,-7.671575069,61.49186707,-21.31141281,-31.58438301
1199,-0.701705396,3.435089588,-7.928080082,65.2570343,-20.67448044,-30.6292057
1200,-0.532578409,2.241616011,-7.720923901,67.4185257,-23.50993919,-28.92838287
1201,-0.53384316,1.006792068,-8.421459198,74.37464905,-25.32290077,-29.10979271
1202,-1.682027459,0.887600303,-9.024680138,84.87543488,-19.01954269,-32.12535858
1203,-3.027971745,1.064843774,-9.113902092,83.98558807,-5.830148697,-37.0582695
1204,-4.155195236,1.718821645,-9.393147469,87.51418304,3.28657198,-43.17554855
1205,-4.184607506,1.741030216,-9.090453148,101.2836227,12.57756424,-46.23632431
1206,-2.78379941,1.475671649,-8.980923653,120.1573486,17.92433929,-43.45893097
1207,-1.656190157,-1.490326405,-7.053708553,109.3782196,37.75619125,-47.77218246
1208,-1.397545099,-2.024923325,-7.556890488,110.1116791,43.64065552,-50.78726578
1209,-1.824417472,-1.574922562,-9.304965973,169.368988,29.24877548,-53.83182907
1210,-1.466768146,-1.818879843,-10.0752964,205.9064026,2.5477736,-51.56850433
1211,-1.633777976,-0.807267189,-11.06419182,193.1675262,-0.237065226,-39.60962677
1212,-2.247825146,-0.830067456,-10.82408047,156.0821533,2.615494013,-39.17216873
1213,-2.898859024,-1.241519213,-10.17085934,120.6902237,14.74913502,-39.81356812
1214,-3.373791695,-1.650553823,-9.855731964,131.7299347,16.0004425,-38.99742508
1215,-2.560399294,-2.714824438,-9.220017433,142.4930267,16.78112221,-43.22408295
1216,-1.966319203,-3.545281887,-9.580898285,134.0411835,13.91447258,-46.47194672
1217,-1.18601346,-3.397865295,-9.161334991,121.2344513,19.25939369,-43.04263306
1218,-1.500768304,-3.256536007,-8.387361526,100.2016449,16.39867401,-30.23574257
1219,-2.39390564,-3.258090019,-9.151908875,92.55925751,9.713031769,-21.28398705
1220,-2.196370363,-3.372525215,-9.770822525,80.40397644,13.49204445,-17.26346016
1221,-1.762218714,-3.464441061,-8.216934204,50.40662766,28.12458229,-13.91439915
1222,-1.745802045,-3.3285532,-8.172299385,34.24203873,23.1528492,-4.420292377
1223,-1.696261168,-3.349742413,-6.764798164,26.94911194,27.31248283,-0.470725447
1224,-2.546306133,-2.730822563,-6.677811146,-1.478052258,14.16561222,1.706818581
1225,-2.338068247,-2.206007242,-8.390387535,-16.99768829,-1.578518987,6.12931776
1226,-1.934138417,-1.90330863,-8.442474365,-42.94599152,-13.12901878,16.99111938
1227,-1.04491508,-0.808960795,-9.206235886,-87.45839691,-22.23044205,29.6128788
1228,-0.521506011,-2.197868109,-8.25319767,-114.4340134,-16.17638016,38.56399155
1229,-0.814678609,-3.582709789,-7.51135397,-133.7262878,-1.824218631,43.25024796
1230,-1.439054489,-3.181321621,-8.306903839,-124.7276154,-6.254611015,47.2953949
1231,-1.980388641,-2.943250656,-9.513075829,-124.1631699,-24.07193565,56.96908188
1232,-2.522963285,-2.917659283,-10.1878891,-135.3973541,-15.33911228,59.7194519
1233,-2.453722477,-2.114630222,-9.657734871,-120.4173737,-6.411880493,54.19308853
1234,-1.989556074,-1.354556203,-9.430400848,-101.0537186,-8.635009766,46.62823868
1235,-1.491097927,-1.925690055,-8.94251442,-97.53990936,-10.42421818,39.7180481
1236,-1.469683886,-2.798992157,-9.999073029,-81.36220551,-7.759227276,28.54738617
1237,-0.409921557,-3.240994215,-9.622824669,-51.83731079,-11.4213047,19.87001038
1238,-0.282864302,-2.503371,-9.448889732,-53.87779617,-13.43012714,16.68344498
1239,-0.559511721,-1.528110623,-10.68245983,-43.02659225,-22.75686836,13.41544247
1240,-0.941228986,-1.435033917,-11.23960876,-54.40977859,-19.68087959,7.293642521
1241,-2.264071703,-0.485576332,-11.87083435,-60.99340057,-6.815936565,-4.107831478
1242,-2.072087288,-0.758102477,-10.427742,-48.50414658,11.70866776,-14.24700546
1243,-1.29588604,-0.299267352,-8.823595047,-27.81155586,20.43902397,-17.81799126
1244,-0.810419917,-1.390458584,-7.779688358,-22.02539063,9.607346535,-18.40374374
1245,-0.115401298,-0.845809937,-7.314241886,-16.68686485,9.801375389,-22.25344276
1246,-0.215159148,-0.986359477,-7.452159882,-6.200113297,14.63489819,-27.38112068
1247,-0.074412517,-0.642725706,-7.869294643,6.558260441,16.34407806,-33.61044693
1248,-0.717784226,0.72380662,-9.125793457,-1.654893994,12.46123505,-31.16566467
1249,-2.184384823,0.385158449,-10.82500553,-6.233760834,12.19678879,-32.19764709
1250,-2.834523201,-0.160191849,-11.04160595,4.262039661,6.560813904,-32.14983368
1251,-2.778775454,1.134248257,-10.41805744,12.96313,-5.518933773,-27.51224518
1252,-3.529350281,1.698861122,-9.988324165,13.50969315,-12.4549675,-14.61638832
1253,-3.336987495,1.38581872,-9.420960426,0.521430194,-15.99674511,-3.29224658
1254,-2.477254152,1.380742192,-9.058514595,-20.9776516,-20.59846687,6.456374168
1255,-1.925008535,1.439157844,-8.891891479,-50.59500885,-25.03014946,16.33382034
1256,-1.906418443,1.974767208,-8.511889458,-68.19759369,-36.0279274,23.49404526
1257,-2.088452816,2.202564716,-7.81690073,-65.85858917,-49.09633636,28.57542229
1258,-2.202702761,1.618938684,-8.467759132,-64.05184174,-59.74046707,36.00539017
1259,-1.488939404,1.41039598,-8.774463654,-69.95850372,-47.9069519,41.27810669
1260,-1.937914252,1.974599481,-8.901895523,-83.37554932,-24.24730682,46.21076965
1261,-2.436741114,2.000373602,-9.373622894,-89.0355072,-11.15762043,51.77299881
1262,-2.95413065,2.142696381,-8.781877518,-82.07978058,6.863931656,53.71408081
1263,-2.918956518,3.198512793,-8.261095047,-82.67980957,19.70875359,56.4233551
1264,-2.685733795,4.657796383,-8.685500145,-87.85975647,19.69836426,61.0248909
1265,-2.235764503,3.930230141,-8.242825508,-104.757431,11.51391411,66.04444885
1266,-1.900309801,3.923246622,-8.080766678,-128.8939972,4.527853489,74.42796326
1267,-1.777613878,4.514697552,-8.221486092,-144.8902283,-4.626461029,80.47415161
1268,-1.568142653,4.451535225,-8.645234108,-167.5079956,-3.06007576,78.64575958
1269,-1.701662183,5.495249748,-7.953148365,-188.5888672,3.826913118,71.24639893
1270,-1.732960463,7.218839645,-8.243619919,-200.8568268,-6.102861404,72.4943161
1271,-1.896807671,6.407457829,-8.54250145,-198.5459747,-11.38380814,75.86643219
1272,-1.966868997,5.663273811,-7.949434757,-198.0514832,-4.417086124,70.39315033
1273,-2.333839893,5.338223934,-7.398852825,-195.1972809,7.605455875,66.48735809
1274,-2.420833826,6.372244835,-6.754870415,-198.0541229,12.09774303,62.35425186
1275,-1.406646848,6.764365196,-6.703017235,-178.2745514,4.851260185,60.11896896
1276,-0.89365375,6.58557415,-5.607935429,-140.2849274,-4.94785738,59.72854233
1277,-0.324105591,6.316808224,-4.154766083,-121.0417328,-11.35686874,54.78945541
1278,0.13240689,6.078993797,-3.925755024,-107.649231,-16.05230331,46.18842316
1279,0.431747437,6.098623276,-4.444319248,-82.10204315,-24.50328636,35.58294678
1280,-0.148222864,6.15943718,-5.259532928,-45.77008057,-25.19541168,26.53344154
1281,-0.938581347,6.916378498,-4.672486782,-10.99265099,-29.14894867,19.46667099
1282,-2.347178221,7.212184429,-4.804855824,11.99517536,-31.68947983,19.80878258
1283,-1.659684539,6.644405842,-6.072145939,43.30727768,-45.32083893,19.2575531
1284,-0.139659867,5.998787403,-4.619992256,54.91518402,-27.7588768,3.584321022
1285,0.840033114,5.703670025,-2.634359837,41.28715515,1.112554312,-24.8488369
1286,0.940941632,7.243220806,-2.714280605,37.21702576,18.65143204,-44.06919861
1287,0.334971935,8.739848137,-3.673630714,58.14393234,3.714860201,-39.56404877
1288,-0.215622663,8.994748116,-3.648569345,69.80561829,-9.666108131,-27.35551834
1289,-1.406434894,8.472849846,-3.350927591,58.55187988,-6.163452625,-25.55552101
1290,-1.570724368,7.699995041,-5.212938786,70.18742371,-20.92128944,-30.26210213
1291,-1.547773123,6.686326027,-7.159377098,99.09566498,-29.84204292,-28.68183327
1292,-1.673755288,6.668747425,-6.879392624,112.7226028,-28.8147831,-30.44401169
1293,-1.390427828,7.742965221,-6.982497215,103.1241684,-19.99002838,-35.50215912
1294,-1.358338118,7.851477146,-7.413815022,81.4532547,-13.24161339,-38.53731537
1295,-1.334545493,8.047595024,-7.202783585,45.51499939,-9.909996033,-36.66771698
1296,-0.758494258,7.416321754,-7.899279118,33.61201859,-13.3782196,-25.25547409
1297,-0.796010673,6.101290703,-7.501894474,32.06393814,-15.91280746,-16.71180153
1298,-0.433973253,6.056570053,-7.469522953,-4.636313915,-14.0995903,-12.18785667
1299,0.134781495,7.35693121,-8.10314846,-40.18430328,-1.157944083,-7.238126755
1300,-1.143002391,8.480467796,-9.867267609,-28.14364624,9.969397545,0.97267735
1301,-2.638487339,7.703856945,-11.17321205,1.011722445,19.49597359,7.199055195
1302,-1.874059558,5.016314983,-7.781556606,4.175321579,56.86806107,4.047666073
1303,-1.479061246,3.841017485,-4.488818645,-9.804922104,89.17489624,-2.84330821
1304,-2.60363102,5.442178726,-6.774582386,20.48158455,48.85251617,0.187301114
1305,-2.4958148,5.427645683,-7.011966228,48.28773499,15.63661194,-0.630808115
1306,-1.34053874,5.710125446,-7.533370495,47.92124557,-11.3163681,-10.2228241
1307,-0.899919569,4.938707352,-5.987981319,63.9591217,-10.43061066,-10.16067314
1308,-0.431116164,4.052309036,-5.030092716,69.67662048,0.059057564,-19.1608429
1309,-1.432909608,3.9161098,-6.979748726,73.89428711,-3.235772371,-23.57322502
1310,-1.475982428,3.088365316,-7.487081528,69.6071167,-9.109763145,-28.807621
1311,-1.382234454,2.2560184,-6.79235363,50.84562302,-1.447763681,-31.94592285
1312,-2.396709919,2.772439241,-7.0890522,65.19411469,-0.749403,-31.67837334
1313,-2.572444439,2.761169195,-7.252381802,62.80817413,1.029487848,-29.62289619
1314,-2.457914352,2.11703825,-6.58775568,53.84963608,9.793379784,-32.66941452
1315,-1.494530916,2.912281275,-6.641267776,61.14447403,18.89421844,-48.16386414
1316,-1.107858419,3.685711861,-7.211292267,87.33876038,14.09095097,-55.13552856
1317,-1.85627532,3.409976482,-8.403421402,111.9717865,4.516713142,-50.31239319
1318,-2.723170996,3.318240404,-9.863841057,130.3571472,-4.605347633,-55.23868179
1319,-2.829172134,2.037148714,-10.11687469,135.5992737,-6.885440826,-58.4237175
1320,-2.665431023,1.215407252,-10.35176373,139.4179535,2.317592859,-59.65900421
1321,-2.836693287,0.660200059,-9.124176979,154.2148285,16.41771317,-58.96985245
1322,-3.399184942,0.747687459,-8.398029327,169.3559265,28.44450569,-59.87032318
1323,-3.176784515,0.32215637,-9.152918816,198.4593506,24.6923542,-69.11341095
1324,-1.293955564,0.191750616,-9.076211929,232.5014496,27.63834572,-79.26823425
1325,-0.963122666,-1.642061949,-8.537011147,248.1344147,27.65315628,-77.59513092
1326,-1.869258046,-4.047157288,-9.346436501,259.4411621,24.56048584,-75.73704529
1327,-2.372544527,-3.890383959,-11.47800541,279.5186157,21.24015427,-82.00441742
1328,-2.358649254,-3.722280502,-12.07683659,289.1707153,15.37428951,-87.54404449
1329,-3.329005718,-3.305142164,-11.94843578,274.7504578,16.23441124,-84.07749176
1330,-3.513520002,-3.633774519,-11.60730457,274.737793,24.66290283,-77.66386414
1331,-2.994517088,-4.542580605,-10.73423958,283.8421021,33.52412796,-75.07778168
1332,-2.679478884,-5.83480978,-10.36826801,277.9928589,22.20381927,-71.23257446
1333,-1.931625485,-5.374166965,-9.824759483,254.1090546,10.51797485,-66.01042175
1334,-0.99503994,-3.690139532,-8.839137077,222.1551971,9.810035706,-57.86207199
1335,-0.942070425,-3.528133869,-8.142886162,185.5981598,4.483951569,-45.29130554
1336,-1.203682303,-4.461016655,-8.23513031,152.9375305,7.213940144,-36.00605392
1337,-1.09424305,-5.267138481,-7.575451374,118.2364349,12.15785408,-30.69219398
1338,-0.816833615,-5.26087141,-5.953969479,85.62944031,19.2063427,-23.12605095
1339,-1.044124484,-4.573019505,-5.120792866,41.19792175,15.0336628,-7.217747211
1340,-2.454472065,-3.886047125,-5.765402794,-3.585977077,3.033850193,0.770058751
1341,-2.828011274,-3.896968603,-6.086858273,-34.40816498,-13.35591888,5.862430573
1342,-1.948654652,-5.868938446,-5.47680378,-87.20717621,-26.32196236,19.87207603
1343,-0.709204555,-4.770905018,-6.969834805,-159.9858856,-26.05970764,35.16043091
1344,0.364484876,-3.857423067,-6.346637249,-195.7715149,-5.162667751,45.23827362
1345,-0.233181566,-5.547115803,-4.346825123,-227.963562,6.558290005,47.05589294
1346,-1.918417692,-5.871159077,-7.386129856,-247.7631683,-13.09888935,51.13650513
1347,-1.978420734,-5.825816631,-10.96707916,-225.3799896,-32.47735596,60.92248154
1348,-1.358060122,-5.874154091,-11.49077034,-211.2476654,-25.74575233,62.55561829
1349,-1.556112289,-4.638855934,-10.49432945,-177.3467865,-14.51121902,55.9504776
1350,-0.976499856,-3.79578352,-10.24172688,-157.6351929,-12.99109459,48.99366379
1351,-0.813983679,-4.679784298,-10.13561821,-146.2608185,-20.97521782,46.01612091
1352,-0.895920813,-5.429778576,-10.80548477,-125.8339157,-16.07910156,39.088871
1353,-0.631968975,-6.040663719,-10.13485909,-95.21295929,-14.16730785,27.17282486
1354,-0.867782533,-5.87155962,-9.120891571,-77.23855591,-11.96666527,18.30745697
1355,-1.296825767,-4.762212753,-9.21582222,-58.10280228,-16.72665024,12.97983837
1356,-0.780417681,-3.554899454,-10.72517681,-34.85874176,-21.12210655,9.427010536
1357,-0.590644836,-4.115289688,-8.916420937,-18.1164093,-3.388269901,6.21123457
1358,-1.045186281,-4.827787876,-7.737941265,-2.943516493,16.06016922,-2.201503038
1359,-1.043739915,-4.876633167,-7.93459177,26.80292702,16.84949303,-17.25413895
1360,0.015465574,-4.046554565,-7.942992687,48.40563583,9.259244919,-32.80045319
1361,0.901746333,-1.407977819,-8.222083092,44.86520004,6.518643379,-36.04071808
1362,0.130878896,0.333623141,-6.988626003,5.709388733,14.41695213,-25.72237396
1363,-1.038266778,-0.311897099,-6.813472748,-22.49485207,17.47805786,-14.04702663
1364,-1.223099113,-1.571428537,-8.162414551,-12.19779873,1.128567815,-17.44677162
1365,-1.599571705,-0.937688351,-8.991335869,21.56344032,-10.3274231,-21.64614868
1366,-1.685896158,0.021699894,-8.928155899,26.8667984,-16.54777527,-17.87459564
1367,-1.419944167,-0.138598114,-9.166283607,-2.937933445,-17.10170746,-4.16470623
1368,-1.590685725,-1.057069063,-9.529473305,-39.35243988,-15.45896912,1.444309115
1369,-1.687623501,-1.150485396,-9.60640049,-53.34657669,-15.94641399,5.402667999
1370,-2.000861883,-1.019320011,-8.473233223,-70.47379303,-21.38128471,15.21175861
1371,-1.974338055,-0.727288187,-8.342955589,-86.30093384,-27.64235878,24.93688583
1372,-1.486883998,-0.784161627,-7.830351353,-98.06196594,-29.6618557,31.07185936
1373,-1.498101115,-0.908589303,-8.283611298,-96.61325836,-29.79953194,40.67824554
1374,-1.811432362,-0.023095369,-9.432069778,-100.8517532,-18.66879654,53.20517349
1375,-2.248645782,1.185701966,-10.36916924,-111.7336044,6.139923096,59.54245377
1376,-2.527966022,1.26341784,-10.4266901,-124.7127914,10.71397877,60.68458557
1377,-3.021173477,-0.270775855,-9.744873047,-127.0360947,21.14187241,55.00656891
1378,-3.011855125,-0.41485253,-8.596102715,-134.9695129,32.83646774,49.59559631
1379,-3.172132254,1.688187003,-9.046339035,-143.958786,25.79926491,51.48207855
1380,-2.897486687,3.533146143,-9.376682281,-159.1470795,21.40915489,54.39372635
1381,-1.761861801,4.096889019,-7.989098072,-193.858429,37.68984985,54.55712891
1382,-0.822999716,4.587836266,-7.612647533,-239.6167755,40.75207138,54.43878174
1383,-1.586720943,5.494278908,-8.874241829,-262.0689392,30.81502724,55.4699707
1384,-2.87931776,6.109368324,-8.873556137,-262.5226746,13.68881702,60.32906723
1385,-2.564914942,6.419121265,-9.404671669,-269.0888062,-1.965498805,65.00000763
1386,-2.291573763,6.091980934,-8.970217705,-287.6212769,0.102718979,60.269207
1387,-2.337941885,6.959731102,-8.493312836,-287.6808777,-6.250884056,52.29481125
1388,-2.043597937,7.390153885,-8.035447121,-274.2733765,-13.46376801,51.38739777
1389,-2.410171747,6.769572258,-7.800524235,-259.7758789,-14.80565071,49.69258118
1390,-1.335598946,5.092850208,-8.053266525,-235.6410065,-8.195316315,47.98199844
1391,0.46727854,4.327217102,-7.262095928,-188.4296112,-14.85274124,49.71955872
1392,0.645791054,5.099886417,-5.359958172,-127.3251114,-23.96492195,53.32220459
1393,0.60275799,6.144856453,-3.867358446,-115.3753281,-19.86162567,47.18915176
1394,0.323207706,6.39683485,-3.986067772,-108.3392334,-22.96700478,35.77458572
1395,-0.363296151,7.21950388,-4.494998932,-53.49113464,-35.01675797,32.86320114
1396,-0.944737136,7.349791527,-3.847193956,-15.72586346,-32.02986145,24.72935677
1397,-1.807045221,6.948611259,-3.434818506,-11.68596745,-22.8991375,21.23900986
1398,-1.690161586,5.633683205,-3.780594587,2.025258064,-15.3529253,19.62772751
1399,-0.200565174,5.085101128,-2.544697285,22.19324493,0.759590805,-0.688483477
1400,0.855502129,6.196891785,-2.225930452,50.95265198,-1.868991375,-20.61626625
1401,0.636076629,7.95331955,-3.22573328,104.0692139,-29.22436142,-22.55822754
1402,0.419603825,9.57905674,-3.380734921,132.5446014,-40.98984528,-12.69553185
1403,0.210763335,9.381933212,-2.038865328,87.78591919,-23.96935272,-10.04685211
1404,-0.051920578,9.281676292,-3.067075014,53.22555161,-8.762606621,-21.44774246
1405,-0.232489154,10.08090591,-5.170645237,81.82461548,-22.58756828,-22.44030571
1406,-1.152810454,9.169744492,-6.024981022,109.391716,-30.66469765,-18.58505821
1407,-1.803038478,7.452446461,-5.830005169,119.6187286,-31.40295029,-11.99121189
1408,-1.514207959,7.468962193,-5.727386475,125.3516769,-30.43110275,-15.40458488
1409,-0.104807928,8.579648972,-5.893931389,115.2310333,-28.55832672,-24.28934097
1410,0.593242764,8.622509003,-6.557030201,90.08712769,-27.04775238,-26.18290901
1411,0.339261711,8.844624519,-6.932892799,74.43667603,-28.74919128,-24.4330368
1412,-0.109458461,8.38773632,-7.20854187,61.20286179,-27.9570446,-13.70225239
1413,0.144776955,7.383576393,-7.945025444,36.44349289,-16.57982445,-7.60125351
1414,0.67296648,7.329461098,-7.371658802,-5.687469482,0.804924428,-11.9188776
1415,0.439384609,7.52721405,-6.916491032,-28.95153999,21.17733574,-13.710742
1416,-1.165324688,7.767963409,-8.578983307,-1.165750027,11.79389477,-7.427444935
1417,-1.608517647,7.277637005,-8.595232964,31.46451378,15.72893524,0.639660656
1418,-0.758415401,5.920382977,-6.144626617,17.1221447,38.8829155,-6.674943924
1419,-1.03975594,5.253430367,-6.092404842,-2.349400997,36.43911362,-12.40027332
1420,-1.338835001,5.783553123,-7.433596134,19.02168274,4.063634872,-10.99493599
1421,-1.297478676,6.137016773,-7.281576633,33.10272598,-6.567354202,-9.943610191
1422,-0.851969779,4.77466917,-6.877610683,34.62570953,-0.161514446,-11.39110947
1423,-0.857297957,3.820358038,-5.932626724,44.69057465,12.78264046,-21.18818283
1424,-2.300210714,5.544043064,-6.487472534,68.26422882,0.033265106,-23.27564812
1425,-2.383327484,7.161845684,-6.563297749,76.42588806,-16.79745865,-17.99557114
1426,-2.620354414,4.695782661,-6.463972569,65.04073334,-21.72494125,-21.35222244
1427,-2.429531574,2.615453243,-7.237041473,76.89027405,-29.62164307,-29.63817787
1428,-1.922989488,2.188170671,-7.468595982,105.2677841,-43.86172867,-36.57254028
1429,-1.517650604,2.286420584,-6.983926296,113.8090973,-40.8575592,-48.19328308
1430,-1.211589694,3.626249313,-6.508466244,110.585144,-23.00951195,-58.9719429
1431,-1.404754162,3.562116861,-6.552545547,108.8575821,-21.51983643,-56.0276413
1432,-1.943512678,2.65522337,-6.946942329,103.750145,-18.08940315,-50.80917358
1433,-2.984266996,2.559552431,-8.013168335,116.2653656,-11.4839716,-51.39229965
1434,-3.344225407,3.293150663,-8.343463898,120.9631042,-9.915393829,-50.53358841
1435,-3.249768734,2.794884443,-8.067829132,117.8440247,2.927718401,-48.35330963
1436,-2.909664869,2.034566879,-8.313768387,113.0234222,18.92881012,-50.16980743
1437,-3.270558834,1.601478696,-8.860948563,123.8052673,32.12663651,-56.1659584
1438,-3.529152632,1.104704142,-9.086999893,154.4412994,36.14812469,-63.18341064
1439,-2.468757391,0.482842505,-8.765433311,183.7696533,43.49451447,-67.16401672
1440,-1.287124991,-0.560172439,-8.662714005,206.2120667,37.25366974,-71.70766449
1441,-1.3648386,-2.366933584,-8.67708683,234.239563,34.53770447,-70.50753784
1442,-2.896150351,-2.981898069,-9.420788765,255.9093475,27.17151833,-70.72634125
1443,-3.085114717,-2.26328063,-10.62878799,267.8677979,18.72470856,-75.41023254
1444,-2.961735964,-2.086407185,-11.37863731,270.0715637,17.59946823,-75.29640961
1445,-3.112816572,-2.085323811,-10.89610004,272.3164063,1.140370965,-70.13885498
1446,-2.67582202,-3.362311125,-10.60048008,225.6013336,5.212446213,-64.00460052
1447,-1.661548257,-3.81462431,-11.11390591,157.996521,24.65005302,-56.26016235
1448,-1.348778009,-4.003107071,-10.57712841,139.0846863,47.47874451,-51.80697632
1449,-1.595538855,-3.337685585,-10.34012222,136.5140533,37.7187767,-45.06882095
1450,-1.4042418,-3.455626249,-9.823317528,129.8524628,27.1464653,-43.85112381
1451,-1.721402645,-3.192873001,-9.583474159,109.7497177,16.05970573,-38.72902298
1452,-1.792317867,-2.769400835,-9.410722733,87.34260559,8.11615181,-28.33238411
1453,-1.838633776,-3.23217535,-8.326822281,66.81260681,7.081644535,-14.42985249
1454,-1.996037841,-3.604439497,-8.17073822,32.84968185,5.822789669,-3.575067759
1455,-1.748466969,-3.876362801,-6.753000259,13.32970428,7.38150835,4.968829155
1456,-2.279820681,-3.661877155,-6.8608284,-19.23767853,2.815832615,9.933805466
1457,-2.797849178,-3.813114405,-6.812283993,-38.48075867,-8.487014771,17.51190948
1458,-2.022901058,-5.406463623,-8.032958984,-70.24733734,-21.98563385,24.88559532
1459,-0.475768536,-4.069943905,-7.843072414,-84.3624115,-20.80992317,30.5111351
1460,0.081754208,-2.990008116,-6.819233418,-119.5230408,-9.724885941,31.16445351
1461,-0.746371508,-4.912479401,-6.939853668,-139.8767853,-7.226911545,35.34542847
1462,-2.108149767,-4.888895035,-9.776901245,-147.7282715,-11.23635674,45.20696259
1463,-2.376159906,-4.645214081,-10.63604641,-154.3105621,-16.58717346,47.80561066
1464,-1.919027805,-4.161391258,-10.15396118,-151.6765289,-21.15722084,46.93600082
1465,-1.848052859,-3.782678843,-9.619822502,-130.1431427,-29.04359436,48.38050461
1466,-1.730263829,-3.862289429,-9.286450386,-111.699646,-34.68450546,53.42609787
1467,-1.47930491,-4.119773388,-9.280190468,-92.95383453,-31.98164749,47.30290604
1468,-1.363614321,-5.314061165,-9.422897339,-64.85378265,-28.3982811,34.94231033
1469,-0.655453861,-5.695096493,-9.545547485,-40.44499207,-24.78037071,22.01847076
1470,-0.478586197,-4.143384933,-8.720870972,-24.57666779,-20.61665726,13.00733089
1471,-0.858702242,-3.081133366,-9.434734344,-14.7631979,-20.28322029,7.95383215
1472,-1.466588855,-2.379068375,-10.01838112,-9.267631531,-14.1821003,-1.182398558
1473,-1.953846693,-1.590688705,-9.879813194,-7.096922874,1.993315339,-9.616804123
1474,-1.858110666,0.039337434,-8.188711166,-18.29706764,9.719263077,-10.51588917
1475,-1.519110084,-1.632646561,-7.72379303,-31.17232513,10.61692047,-3.68633461
1476,-0.796539247,-2.343837023,-8.66779995,-25.18822479,3.221130371,2.52848506
1477,-0.02871085,-1.183009148,-8.971735954,-12.29545975,4.922923565,3.858420372
1478,0.167236581,-0.42598775,-7.675312519,-26.68765259,14.95798779,5.761526108
1479,-0.459939122,-0.877990067,-7.697332859,-45.16851044,18.62543869,6.0547719
1480,-1.379814506,-1.158073783,-9.449536324,-25.87015724,12.51545906,0.77018255
1481,-1.879978418,-0.886016309,-9.853034019,-11.59107494,6.884436131,-0.457852989
1482,-2.68503809,-0.037318252,-10.02541924,-21.45403671,3.82229805,-2.724837065
1483,-2.902382135,0.255260915,-9.690551758,-27.32964325,1.718776822,-2.208806515
1484,-2.407533884,0.559129536,-9.643515587,-33.40999222,-1.04221046,4.10827446
1485,-2.343101263,0.845457673,-9.289456367,-44.40376282,-1.899528384,10.14086437
1486,-2.754139423,1.093249559,-8.609237671,-57.17721939,-4.55873251,15.55795383
1487,-2.044566631,0.720847905,-8.483194351,-68.7609024,-4.537425995,22.76828766
1488,-1.52274096,-0.326922625,-8.002388954,-82.86759949,-6.853909016,24.46726036
1489,-1.316262603,-0.897929072,-7.724115372,-88.13978577,-2.543621063,25.51782417
1490,-2.078747511,0.528562367,-7.697957516,-81.7347641,-11.39411449,33.36917114
1491,-2.368960381,1.320009708,-8.330645561,-84.5849762,-28.04063225,44.35362625
1492,-2.042319775,1.093622208,-8.817575455,-96.08553314,-34.60109329,53.0952301
1493,-2.512960434,0.806568325,-9.488328934,-97.12850952,-21.8177948,58.90650177
1494,-2.503952026,0.732007444,-9.30252552,-95.77023315,-2.521698713,61.80859375
1495,-2.809722662,1.01281476,-9.193817139,-103.7859421,16.41955185,57.76002121
1496,-2.36614871,2.919347763,-9.595359802,-110.4348526,18.20112419,55.52289963
1497,-1.974816799,4.056923389,-8.50214386,-122.65905,21.24544716,59.43424225
1498,-2.389280081,3.886349201,-8.568982124,-156.3506775,25.38982773,63.04125977
1499,-1.367161512,4.515311718,-8.764509201,-182.0847015,15.57100773,65.15592957
1500,-0.516507983,4.792448044,-7.90261507,-201.4543457,18.09545898,59.62630081
1501,-0.92085737,5.063452244,-7.555664063,-218.8223724,26.93574142,52.49477386
1502,-2.459416389,5.810611248,-7.658365726,-221.2877197,15.97216892,56.85990143
1503,-3.021106005,6.637701035,-8.857504845,-198.6944885,-10.67551708,63.59413528
1504,-2.475086689,7.238323212,-8.30531311,-179.6128082,-26.15178871,70.25267029
1505,-2.150309801,7.604495525,-7.94588995,-192.4915161,-26.9824276,70.73668671
1506,-1.805600405,7.628227234,-8.088855743,-204.8713989,-22.54172325,65.06808472
1507,-1.652141929,7.035028934,-7.665084839,-185.3865204,-28.77759933,64.1049118
1508,-1.649672151,5.651828766,-6.580684662,-151.0561981,-39.01829529,63.56542969
1509,-1.00730896,4.527551174,-5.787510395,-113.8585739,-45.48657608,55.76777649
1510,-0.251728147,5.194386005,-5.614421368,-71.76447296,-49.79801559,38.61827469
1511,0.347925305,6.078788757,-5.482591629,-42.21600342,-47.51269531,21.17268181
1512,0.394311398,5.827865124,-4.304498672,-26.21280861,-35.58602905,12.77711105
1513,-0.668389738,5.522729397,-3.010325193,-5.561586857,-17.74849701,4.595647812
1514,-1.662872553,5.414806843,-2.728578329,18.3179493,-11.40373039,-7.165677071
1515,-2.549301863,6.718160152,-5.047398567,58.99405289,-23.68255234,-15.89021873
1516,-1.861880183,7.647184849,-5.844692707,99.84918213,-31.44083214,-17.57933044
1517,-0.402603805,7.53119278,-4.231603622,99.31035614,-16.04175568,-21.62415123
1518,0.839716494,6.598053455,-4.053098679,85.86087799,5.316495895,-25.56052208
1519,0.431707382,7.048428535,-4.557547569,81.45188141,4.547334671,-20.3361187
1520,-0.35822764,8.416537285,-4.812404633,64.22570801,3.240587473,-14.77106953
1521,-0.582370758,8.578595161,-5.601591587,58.35142136,7.156685829,-16.35951996
1522,-0.693014622,6.927394867,-6.500618935,72.2995224,1.880054355,-21.32457352
1523,-0.918661952,6.471618652,-6.642372131,91.47070313,-3.006551504,-23.68245316
1524,-1.024069309,6.719903946,-6.286278248,102.8151398,-5.61580658,-25.05218315
1525,-0.511581123,7.524950027,-6.949251175,81.62348938,2.490474463,-34.14014435
1526,-0.729397535,7.523574829,-7.570572376,59.18859482,15.70158768,-36.63505936
1527,-0.91039896,5.75197649,-7.455764771,35.46406555,33.88773346,-39.36145782
1528,-0.502054214,4.794072628,-7.362100601,16.96392632,33.96098709,-39.99671936
1529,-1.058386564,4.89934206,-8.650257111,18.18226814,23.36309814,-32.13713837
1530,-0.196625441,4.873062611,-8.973818779,17.21682549,25.12779427,-31.57922363
1531,0.046543181,4.2584095,-8.280871391,9.17301178,34.14387894,-25.35105133
1532,-1.00643158,5.558937073,-10.45787144,26.41534042,32.29397202,-18.14663887
1533,-1.852358103,7.101606369,-11.42539024,61.74635696,39.98080444,-7.486685753
1534,-1.23027885,5.735788345,-7.147516727,54.32353973,92.3008728,-2.337637663
1535,-1.263009191,3.214766502,-6.63449192,7.171323776,81.90950012,-3.795508385
1536,-2.431925535,3.689548016,-8.594758034,33.04156876,57.18743515,-7.500359535
1537,-3.045307636,4.684309483,-9.148889542,66.59521484,25.72616386,-7.953259468
1538,-0.757114351,5.568707466,-8.739631653,68.91346741,13.34777832,-11.87738514
1539,-0.463479906,5.357326984,-7.32900238,67.86088562,20.66126823,-12.24726963
1540,-1.881579757,3.710764885,-6.814546585,69.13161469,11.8506031,-14.51380253
1541,-2.739890337,4.100522041,-8.625541687,72.83946228,-16.76870918,-14.96065712
1542,-2.455403328,4.326165199,-8.616472244,64.21204376,-26.53822899,-16.01991653
1543,-1.916731477,3.407184601,-7.834794044,46.16749954,-21.72332191,-20.12102509
1544,-1.840986848,3.460775852,-7.415429115,39.66907883,-20.08740807,-22.01296234
1545,-2.043809652,3.340541601,-7.519227505,35.48278427,-23.20665932,-17.97170639
1546,-1.66256237,2.234511375,-7.945784569,35.82783508,-20.06711197,-16.95724678
1547,-0.918947339,2.065108538,-7.4651227,39.11080551,-21.80259323,-23.18224716
1548,-0.327619523,2.878303051,-6.771919727,51.44063568,-18.95617294,-23.32985306
1549,-0.125397235,2.94265151,-6.45085001,51.41936111,-17.82914925,-20.26206398
1550,-0.355215579,1.536917448,-7.444227695,55.59038544,-24.42923737,-21.64580345
1551,-1.272059798,0.20464322,-8.442281723,71.16133118,-34.06827927,-27.69141579
1552,-1.855111837,0.762668312,-10.42023563,87.38813019,-29.27791405,-32.72116852
1553,-3.226881266,1.433654785,-10.3730669,99.68791962,-0.525247574,-36.05965424
1554,-4.138462067,2.387616158,-9.621008873,113.9025345,21.99995995,-40.04764938
1555,-2.753616571,1.758382201,-7.421117306,141.2370758,29.92169952,-50.03947449
1556,-1.013085246,0.301591843,-7.793770313,153.5708008,32.55990219,-60.52553177
1557,-0.381388932,0.97505343,-8.925305367,189.0184937,33.70985794,-60.58163452
1558,-0.398137808,-0.918306112,-7.002990246,207.013916,33.86592102,-52.6853981
1559,-1.116086364,-1.377146244,-8.230349541,199.6633911,16.28924179,-48.49766159
1560,-1.31221056,-1.621167541,-10.52086926,229.6511841,2.77793932,-52.01720428
1561,-1.845561385,-4.281448364,-10.92883778,240.0923462,7.896632671,-55.52503204
1562,-2.301215172,-4.079631805,-11.17009735,222.7768097,7.165449142,-58.28510666
1563,-2.062383652,-2.717718601,-11.0144949,230.7550812,13.28565979,-61.32702637
1564,-2.148283005,-3.265600443,-10.52662086,226.9767914,17.57340431,-62.57548904
1565,-1.582222223,-4.062620163,-9.808401108,186.4428711,35.36938858,-60.45639038
1566,-0.654901564,-3.760741711,-9.890642166,142.8787384,33.09895325,-55.88264465
1567,-1.14658165,-2.6375916,-9.901997566,122.248764,32.48046112,-47.66974258
1568,-1.507326126,-3.225502729,-9.474754333,110.1685028,21.30749512,-37.54656601
1569,-1.721183896,-3.730537891,-10.18732548,99.22896576,12.36235714,-33.16333008
1570,-1.64715147,-4.207589626,-8.83592701,95.33106995,13.52959061,-29.90731621
1571,-1.508803606,-3.519463301,-9.113286972,73.12421417,5.16461134,-19.84652519
1572,-1.571639895,-2.681546688,-7.648201942,50.52589798,6.422145367,-11.75039959
1573,-1.329279661,-3.129098415,-6.942612648,12.91715431,8.06611824,-3.408335686
1574,-1.924918175,-2.987832546,-8.150808334,-15.84801769,4.007912159,8.937045097
1575,-1.603264928,-3.956267834,-9.101144791,-38.11998367,-2.738111496,19.9709034
1576,-0.615961373,-4.43178606,-7.555906296,-73.48903656,-7.834877491,31.02783966
1577,0.004243244,-3.034303665,-7.067533493,-118.2114487,-9.256217957,40.18923569
1578,-0.023626313,-5.043915272,-6.53453064,-149.4085846,-6.607746601,47.18878555
1579,-1.050419331,-5.978302956,-8.113730431,-152.3307648,-9.586767197,51.0332222
1580,-1.205082774,-4.610015869,-9.419236183,-131.3525085,-13.12890339,55.03008652
1581,-1.155588269,-4.708451748,-9.221110344,-142.0178375,-4.735819817,49.35785294
1582,-1.167119503,-4.390434742,-9.564554214,-132.7220154,-2.655388355,44.98004913
1583,-0.445904225,-4.631538391,-8.915000916,-118.0573502,-4.406817436,40.23707962
1584,0.419881284,-4.014867306,-8.852274895,-106.0627136,-2.763231039,32.53952408
1585,0.558636785,-3.728983879,-9.512877464,-96.17985535,-4.514346123,27.42987061
1586,0.848205388,-3.820988894,-9.214284897,-79.35075378,-4.66869545,25.92282295
1587,0.519218445,-3.698567152,-9.341674805,-76.56040955,-1.385370255,20.9369545
1588,0.213162795,-3.4302876,-10.71086693,-69.01669312,0.942429423,15.11656666
1589,-0.344930381,-3.483057261,-11.29309273,-66.39704895,5.67935276,4.740786552
1590,-0.722917616,-2.433630943,-10.4305191,-43.52651596,15.56109428,-5.092010021
1591,-0.975929618,-1.867016673,-8.534335136,-39.70386124,17.00149536,-1.706149936
1592,-0.212329447,-2.514671803,-8.67002964,-41.00086594,10.82081318,3.099047184
1593,0.273404509,-3.224127054,-9.31812191,-23.00223732,3.318893671,-5.65788269
1594,0.664883018,-1.001409769,-9.470412254,-0.78787303,-5.109277248,-16.17712402
1595,1.014052987,0.84762001,-8.650158882,-18.61069679,-1.777702689,-5.485901356
1596,-0.196025506,1.317560434,-8.360200882,-55.00724792,0.831390798,6.806065559
1597,-1.161298275,1.429688096,-8.661476135,-69.63860321,-8.031579018,8.552044868
1598,-1.73383081,0.807788193,-9.322335243,-63.64804077,-18.15825272,8.294539452
1599,-1.912507534,0.594331384,-9.490897179,-50.80194473,-17.77394104,9.832760811
1600,-1.737384915,-0.112666719,-9.297719955,-37.06737518,-20.76428223,17.91116714
1601,-1.815350771,0.169626668,-9.302344322,-39.27138138,-21.42186546,20.80616379
1602,-1.638118148,0.641436338,-9.698843956,-41.80444336,-18.81817627,20.90172958
1603,-1.530542254,1.527570009,-9.143819809,-51.10818863,-13.34509945,27.50138092
1604,-1.567883849,1.45165658,-9.071167946,-68.30465698,-10.48866463,36.71504974
1605,-1.235970497,-0.20994252,-8.54741478,-76.40081787,-16.85004425,35.41448975
1606,-0.57934618,-0.091443203,-8.6620121,-77.02577209,-11.24663448,30.72076416
1607,-0.543410599,1.163526773,-8.837186813,-86.35899353,-10.78407288,34.442173
1608,-0.812472701,1.220802784,-8.972732544,-98.96974182,-10.07996178,38.61244202
1609,-1.465240598,1.12483871,-9.050239563,-106.2573395,-7.464296341,42.65443802
1610,-1.431978703,2.411678791,-8.898815155,-111.301712,-4.062180996,49.17474365
1611,-0.955378354,3.004565001,-8.632522583,-123.1290894,-3.347780228,54.05198288
1612,-1.445983171,2.737677574,-9.570120811,-139.210083,5.306034565,49.57094193
1613,-2.02336669,4.150794983,-10.27094078,-131.0022888,9.698023796,46.95222855
1614,-1.926146388,5.139469147,-9.700566292,-128.9207458,4.486603737,57.44060135
1615,-1.93415308,5.054167271,-8.377346992,-161.9366913,11.51263618,61.03319931
1616,-1.034932256,5.497596264,-6.912041664,-207.6672821,13.13088894,55.20698166
1617,-0.455686152,6.671460629,-7.674098015,-215.9664612,-2.058151484,58.62147903
1618,-0.883607209,4.829696178,-7.33481741,-212.7859192,-0.882444143,56.32446289
1619,-0.650357544,3.228790283,-5.541402817,-213.671936,22.45221901,42.50783539
1620,-1.267572165,5.747275829,-6.201748848,-219.1985474,7.220751286,34.54530716
1621,-1.024615645,8.629191399,-7.573035717,-196.4219208,-18.63353729,43.02358246
1622,-1.065024614,8.796102524,-7.118072987,-182.2516479,-25.15933037,53.05711746
1623,-1.095241904,8.254442215,-7.221395493,-185.9932404,-22.63541603,51.31825256
1624,-0.838976741,7.147989273,-7.392705917,-168.2233582,-17.25509071,45.48399734
1625,-0.477599144,6.197136879,-6.298045635,-144.5135803,-17.33794594,41.83187103
1626,0.123411685,5.942594051,-5.518826008,-123.1696777,-18.85698891,35.11958694
1627,0.443737656,5.815264702,-3.998763084,-101.745697,-17.53796196,30.53489304
1628,0.574327588,6.253342152,-3.980969191,-97.97515869,-21.58832932,19.42133141
1629,0.26135993,7.347856998,-4.851634026,-61.49790573,-34.78483963,15.91377735
1630,-0.622473478,7.662215233,-4.38063097,-15.82627296,-48.0859375,18.23534584
1631,-1.556354046,7.091743469,-4.534072399,-2.497541428,-47.17588043,15.07272148
1632,-1.219498754,6.65648222,-5.731711388,12.59758854,-37.42666626,13.31438923
1633,0.075489692,6.39103508,-4.049471855,38.76654053,-23.71253014,8.664745331
1634,1.829687595,5.882008076,-1.583450675,38.19697571,-2.682868481,-11.6154623
1635,2.357084513,6.292819977,-1.338091016,42.55137634,6.22288847,-29.31024742
1636,1.24416399,8.11674118,-2.22331953,75.63012695,-1.107954025,-28.32878304
1637,0.165356442,9.324085236,-2.628740311,87.17190552,-20.71404839,-17.436409
1638,0.414733499,10.18149281,-3.166429996,68.74394989,-22.36549568,-21.03923225
1639,-0.404263407,10.04005909,-5.256315231,83.73716736,-23.76453781,-26.76999664
1640,-0.820722818,8.243209839,-5.130217552,108.7550125,-30.08104515,-22.37743568
1641,-0.195546806,6.961787224,-5.28575325,111.3167419,-36.05945969,-19.45525551
1642,-0.11003539,7.097198009,-5.752475262,113.5947342,-21.74711037,-28.29499054
1643,-0.08063367,8.427339554,-5.93250227,101.8258209,-2.202769518,-35.5178566
1644,-0.489283562,9.201356888,-6.707230091,88.71187592,4.281330585,-34.12666702
1645,-0.630753458,8.575704575,-6.983016491,92.64013672,-8.160700798,-31.26556015
1646,-0.55047822,6.754324436,-6.916707039,88.11408234,-18.07523346,-25.328228
1647,-0.59818399,6.026650906,-7.17412138,72.73606873,-17.23052788,-20.49193954
1648,0.222063333,6.321815491,-7.158152103,53.84754944,-14.14933777,-16.02262306
1649,0.117465265,7.347697735,-8.303339958,39.51790619,-11.01961708,-14.19668865
1650,-0.476547331,7.781241417,-9.921575546,49.60533905,0.038694736,-10.19826221
1651,-1.000462532,7.146130085,-9.057107925,48.63901901,38.15773773,-8.007343292
1652,-0.536419451,5.577916145,-6.494915009,30.54104424,67.30245209,-9.209776878
1653,-1.330373526,5.532433987,-5.85231781,8.111860275,63.67972565,-10.45576
1654,-1.870528817,5.905235767,-7.899618149,10.86654568,23.28909683,-12.00560379
1655,-1.623770356,7.472129822,-9.007178307,27.44782639,-7.488206387,-13.69086742
1656,-0.696327865,7.348647118,-8.28025341,27.82230568,-4.179186821,-13.40802479
1657,-0.581106365,4.857305527,-6.68217802,21.94563103,18.08701134,-18.069561
1658,-1.912314653,2.806993723,-6.624887466,37.8839035,14.10247803,-28.31004524
1659,-2.394740582,3.774534941,-8.025342941,76.80374146,-12.89859486,-31.93783569
1660,-1.993578672,4.726541996,-7.988385201,88.52010345,-22.2047596,-25.84247971
1661,-2.008291006,4.641409874,-7.484178543,71.20856476,-20.56780052,-25.62078476
1662,-2.017768621,4.130625725,-7.018996716,50.76218796,-17.33864594,-30.11048698
1663,-1.817934275,3.42657876,-7.621097565,45.60526657,-17.41344643,-30.77143288
1664,-1.171663642,2.183981657,-7.104933262,51.62105942,-5.905496597,-32.59405518
1665,-1.32967186,2.974378824,-6.522267818,57.29826736,6.335001469,-36.45656967
1666,-1.13578248,4.388592243,-6.223621845,72.47083282,3.453511953,-37.29981613
1667,-1.380307555,4.899944782,-6.458611488,81.83866882,-10.07916546,-35.46737289
1668,-1.522152066,4.184800625,-8.08562088,98.0752182,-24.6319294,-36.60972595
1669,-1.475491166,2.60868144,-9.289958,109.2412796,-27.81636047,-38.53274155
1670,-2.038703442,0.672143817,-9.737182617,118.5454712,-14.77773476,-40.92948532
1671,-2.160681486,0.10239999,-9.31548214,123.256813,2.521048546,-41.70531845
1672,-2.264991045,1.385252595,-8.332807541,113.6949615,18.79134941,-42.15102005
1673,-2.941889763,2.324682474,-7.741206646,124.2183456,40.15292358,-52.3974762
1674,-2.418912649,0.51687485,-6.292427063,140.7355957,48.96252823,-67.17166901
1675,-2.068709612,-0.407291234,-7.130101204,169.3473511,43.11086273,-78.32790375
1676,-1.877800465,-0.627245307,-8.658602715,226.6524811,15.76132584,-86.63664246
1677,-2.249506235,-1.093539238,-9.850089073,274.7721863,-12.71061707,-82.65513611
1678,-1.907405734,-1.272000551,-10.8813324,269.5566101,-26.82001114,-73.33958435
1679,-1.901061773,-2.075998306,-11.75801945,216.6667786,-6.666833401,-69.56123352
1680,-2.468279362,-2.590332985,-11.99758625,183.541275,9.89279747,-63.806427
1681,-2.684073925,-2.703322887,-11.07314777,201.1211853,16.37794876,-57.01683044
1682,-2.34695363,-3.35899806,-10.21564865,196.6367188,10.84482956,-51.86277008
1683,-2.086009264,-3.777633905,-10.28379536,172.3675537,4.473504066,-50.22644806
1684,-1.878467679,-3.923503876,-9.864104271,172.3250122,5.254958153,-49.83154678
1685,-1.209585667,-3.971495152,-8.854179382,165.3882141,9.874266624,-48.95539474
1686,-1.178023338,-2.972388029,-9.339069366,133.821106,3.910353422,-43.9885788
1687,-1.865938425,-2.049567699,-9.786308289,118.7963867,8.222807884,-35.09031677
1688,-2.005291462,-3.604170322,-7.373425007,80.99245453,25.12926483,-27.5691185
1689,-1.946942568,-4.81607914,-7.401195049,35.69902039,17.25726891,-21.44282913
1690,-1.882326126,-4.079483509,-7.802249432,21.20687485,9.206897736,-14.38239956
1691,-1.752713442,-3.894392252,-7.497249603,4.754403114,4.859863281,-3.909356594
1692,-1.946767926,-3.750140667,-6.585577965,-30.52493477,0.573258996,5.572631359
1693,-2.3149786,-3.33513546,-7.599717617,-67.08592224,-15.10667324,15.56831837
1694,-1.626517653,-3.318950653,-7.580255032,-94.59352112,-27.44535637,22.93741035
1695,-0.804176331,-3.533996344,-7.914002419,-129.5640717,-23.39549255,25.23468399
1696,-0.786642611,-4.016436577,-7.447842121,-136.3615875,-9.35918045,29.40426254
1697,-1.59800756,-4.450538635,-7.081261158,-136.462326,-4.121995926,31.22255707
1698,-1.943011999,-4.206759453,-8.773603439,-132.6170654,-18.35754776,40.53962708
1699,-1.760715365,-4.44915247,-9.970615387,-142.171051,-20.03422165,48.0318985
1700,-2.056028128,-3.548995972,-10.35321522,-140.461319,-8.966195107,50.73890305
1701,-2.410745144,-3.608436823,-9.768614769,-133.7789764,-6.087815762,49.97558975
1702,-1.935435176,-3.874218225,-9.911603928,-124.7030106,-4.083353519,45.44779205
1703,-1.400864005,-4.694466591,-9.644735336,-100.7157135,-5.418526649,39.13748169
1704,-0.719772339,-5.25578022,-9.419023514,-76.48140717,-5.681148529,30.31792259
1705,-0.173218563,-4.507974625,-9.317852974,-72.01593018,3.942035675,25.17329979
1706,-0.800323844,-3.949637413,-10.09804535,-67.64160156,1.070053339,19.53559875
1707,-0.675927103,-3.040480614,-10.32237434,-40.00840378,-15.73099518,12.05052662
1708,-1.065517306,-1.717619896,-9.832746506,-26.51087761,-14.04020405,7.835347176
1709,-1.841687441,-0.99011296,-9.615781784,-16.46421814,-11.16790104,4.722565174
1710,-1.721066713,-0.85528338,-9.188336372,-3.897971153,-1.246173143,0.542073548
1711,-1.563347101,-1.445599318,-8.146570206,-9.688506126,5.51624155,-2.357150316
1712,-1.417391896,-1.633682609,-8.79263401,-0.644799829,-0.521589935,-7.489718437
1713,-0.945727885,-0.984721541,-8.604434967,6.579953671,-2.079868555,-16.01857185
1714,-0.877029538,-0.584826052,-8.793119431,8.683167458,-3.105700493,-24.56677055
1715,-0.909247696,-0.076134309,-8.57734108,11.53887749,-9.775519371,-28.54042625
1716,-0.989488363,0.787677407,-8.232686996,4.700436115,-13.81324673,-23.43483734
1717,-1.593487501,0.644894779,-8.34611702,-7.153232098,-18.65449905,-14.2481308
1718,-1.503894329,0.438942999,-8.841144562,-22.27757263,-18.64940834,-6.274746418
1719,-1.608011127,0.33713609,-8.945298195,-39.12716675,-17.48530579,1.52901125
1720,-2.058145046,0.068485834,-8.953607559,-44.88204956,-9.99654007,5.828701019
1721,-2.046568155,0.22499226,-8.653095245,-48.23548126,-5.752892017,10.07132626
1722,-1.737766743,0.616483629,-8.275774002,-54.41257095,-4.900671959,12.106493
1723,-2.182970762,0.545789003,-8.270388603,-55.46431732,-2.996348619,12.43995476
1724,-2.313598394,-0.246302798,-8.493133545,-52.96779633,-0.876783073,13.51905632
1725,-1.971437693,0.004372671,-8.668035507,-57.69095612,-0.562487841,20.29258728
1726,-1.731347322,0.185946018,-8.927734375,-67.05164337,-11.72278404,33.22034836
1727,-2.114667654,0.661179721,-10.47001171,-81.42845917,-20.01521492,40.08872223
1728,-2.226591587,1.267540574,-10.62661266,-84.46039581,-14.44559765,43.82181168
1729,-2.174755812,1.933945417,-8.718813896,-95.17141724,8.848516464,46.80976486
1730,-2.49998641,2.337260723,-8.762651443,-109.2842636,19.40803337,48.48324203
1731,-2.442441702,2.267313004,-9.109019279,-115.4394073,22.66878128,44.9961853
1732,-2.476358414,2.912902355,-9.264008522,-134.9781494,26.64683342,45.48713684
1733,-2.697183609,3.689762592,-9.279102325,-148.2021637,28.91485214,49.51485062
1734,-2.669574499,3.721401691,-9.072585106,-157.498764,24.81084251,53.78861618
1735,-2.442391634,4.176754475,-9.297725677,-170.5780487,14.40401363,63.03007126
1736,-1.807339191,5.069282532,-9.129723549,-193.9162903,8.688140869,67.38920593
1737,-1.249225497,5.308875084,-8.334348679,-221.6168365,9.423707008,67.82780457
1738,-1.504917502,4.336191177,-7.824876308,-228.3023224,2.451910019,64.65487671
1739,-1.932593226,4.597717762,-8.965193748,-216.7880402,-12.88595486,64.55008698
1740,-2.25891614,6.513028622,-9.234539032,-205.6650238,-16.11602592,62.77854919
1741,-1.795963526,7.419986248,-8.264378548,-205.805481,-11.77412605,60.59264374
1742,-1.240240335,6.757090569,-7.37187767,-199.2171631,-9.868938446,59.15323639
1743,-0.951737285,5.848378181,-6.738083363,-177.1695862,-6.689671993,55.16944885
1744,-0.864026904,5.483573437,-6.358267784,-140.0215607,-12.15771103,52.43438339
1745,0.098469734,5.027572632,-6.431218147,-117.2221146,-14.55593967,50.04602432
1746,0.609005272,4.912625313,-4.774796963,-107.0816956,-1.749916553,44.11506271
1747,0.334647089,5.749014378,-3.598947763,-87.23208618,3.959304571,36.6332016
1748,-0.000560497,6.628921032,-3.324526548,-47.12945938,-5.056217194,26.61547661
1749,-0.321259648,6.452014923,-3.265360355,-16.26735497,-29.171875,13.90182495
1750,-0.534809589,6.530635357,-3.739505291,-5.409950733,-34.70011139,6.660080433
1751,-0.966002107,7.430957317,-4.632711411,13.58310127,-34.31962967,2.899288177
1752,-1.941681147,8.387187004,-6.33829689,40.73246002,-32.92527771,0.079534605
1753,-1.536015272,7.874854565,-6.337994576,66.12352753,-30.5639286,-5.81626749
1754,-0.317360252,6.307215214,-4.609728813,67.24295807,-1.713327408,-20.84422302
1755,0.846448004,5.994810581,-4.243748188,54.12393951,12.68443012,-31.43766975
1756,0.816672862,6.369668007,-5.048974037,62.68038559,9.167633057,-25.30308342
1757,0.374273062,8.314831734,-5.067651749,54.13547134,7.075984478,-20.0091629
1758,-0.006562335,9.019701004,-3.06517601,41.04414368,15.87807465,-23.93375587
1759,-0.539448023,9.239255905,-2.953596354,42.88788986,10.69322586,-30.59241486
1760,-1.036303878,8.289266586,-5.66871357,89.99160004,-21.59706688,-26.91018486
1761,-0.986106992,6.797920227,-6.668629169,123.7857437,-31.26291656,-22.10177612
1762,-1.346276283,5.533778667,-6.260075569,118.4245911,-20.79844093,-28.14125061
1763,-0.825769782,6.155614853,-6.71138382,100.9297028,-13.08274555,-35.28735352
1764,-0.631042719,8.032363892,-7.349281788,77.87705231,-7.499010086,-31.40076447
1765,-0.408326507,8.821577072,-7.687726498,59.12682343,-5.394842625,-23.59020233
1766,0.023241855,7.367963791,-6.94137764,44.06176376,-11.62185955,-16.92133713
1767,-0.680520475,6.779267788,-6.748503685,23.03594971,-14.42234039,-13.57366085
1768,-0.677771688,6.761043072,-6.787850857,11.98137379,-7.089129925,-12.85951138
1769,-0.378751457,6.839170456,-6.880112648,-5.465204239,-5.249723911,-13.11116505
1770,-1.348487735,7.08934021,-8.02059269,-9.082064629,-22.15889931,-6.797177315
1771,-1.939882874,7.325636864,-9.823980331,27.39702225,-32.14408112,4.690874577
1772,-1.798491836,6.203692913,-9.357757568,52.29108047,-12.20547581,8.523809433
1773,-0.91743809,5.01924324,-7.162588596,45.35596085,25.43492699,0.010661388
1774,-0.664198041,5.517239571,-6.217602253,37.46378326,45.07601929,-9.019035339
1775,-1.586965084,5.422093391,-6.511954308,43.80304337,25.67529678,-8.469569206
1776,-1.830336809,5.200873852,-6.831908226,51.04790497,-0.093999475,-6.387751102
1777,-1.34215939,5.0229702,-7.752500057,46.86010742,-19.97368622,-9.305155754
1778,-0.592167974,3.00968051,-7.495590687,48.88473892,-7.008691788,-19.67500305
1779,-1.415697455,2.730803251,-6.786501884,66.18400574,6.836524487,-30.79701614
1780,-2.625573158,4.085299015,-7.585954189,93.8804245,-8.750693321,-32.47439194
1781,-2.784916878,4.217648029,-7.887843609,96.06475067,-18.45750618,-31.93838501
1782,-2.521788836,3.22606039,-7.532710552,83.41904449,-19.32599831,-39.13362503
1783,-2.791948795,2.332648039,-6.906487465,87.04094696,-13.99309158,-43.5203743
1784,-2.772213221,3.055865765,-7.133678436,94.15001678,-19.73830414,-38.57849121
1785,-2.455683708,2.947234392,-7.670057297,100.5092545,-16.42780113,-35.51916504
1786,-2.049226999,2.592656612,-7.943499565,96.53291321,-10.04566956,-41.83869171
1787,-1.900184751,1.642463565,-7.496871471,101.6694565,-6.981433868,-46.03691483
1788,-1.697752833,1.552101374,-7.076510429,109.2015457,-9.127585411,-48.36997986
1789,-1.175100803,2.139618874,-8.470479965,130.6809845,-18.07322121,-50.3445549
1790,-1.609206915,2.400799751,-9.712385178,143.5092316,-16.54380989,-54.18944931
1791,-2.610538483,1.395827889,-10.19346714,135.2501068,-7.09787035,-57.24888229
1792,-3.363287926,-0.039671689,-10.0493803,128.2268372,19.60944176,-53.96588516
1793,-4.197710037,-0.805473924,-9.370078087,118.0659027,40.51886368,-57.26334763
1794,-3.860111475,-0.549686968,-9.284422874,127.2307968,51.22870255,-60.91328812
1795,-3.211455107,-0.805779338,-8.439250946,146.4002838,46.02113724,-65.96102905
1796,-2.106280088,-1.232088685,-8.476132393,167.58255,35.55065536,-67.65711212
1797,-1.177597284,-2.155431271,-8.719372749,193.8686981,31.02225876,-65.36623383
1798,-1.292797565,-3.139315605,-9.129286766,204.8681488,23.39088249,-61.07247162
1799,-2.139981747,-2.936038017,-10.03744507,207.5822449,14.53934383,-55.12817383
1800,-2.979513407,-2.978159189,-10.35565376,198.5812531,17.76702499,-52.42591476
1801,-2.869271278,-3.97149539,-9.880708694,185.0587921,12.69939423,-52.09966278
1802,-2.336908817,-4.355214119,-9.878774643,186.0111847,7.238102436,-49.84109116
1803,-1.745855212,-4.349386215,-9.758969307,179.6032257,11.20254612,-46.74095154
1804,-1.921184182,-3.933339357,-9.487957001,158.2947693,15.28475285,-43.98241806
1805,-1.910963535,-4.443092823,-9.378095627,134.3589325,18.84634018,-43.61192703
1806,-1.440443993,-5.027296066,-8.863841057,101.2561874,17.35501862,-35.585392
1807,-1.468692422,-4.797907352,-8.460242271,80.4411087,15.58939266,-33.05237961
1808,-1.841432333,-3.530507088,-9.274769783,68.48403931,12.96899223,-30.99361229
1809,-1.552892089,-3.438014507,-9.867172241,48.66101456,7.113807678,-21.94023514
1810,-1.898238063,-4.258132458,-8.525604248,17.49956322,16.71938324,-10.05295086
1811,-2.30478096,-3.923795223,-7.270346642,-5.341690063,26.17582512,-5.563406944
1812,-2.394468069,-3.874037743,-6.471001148,-19.3351326,20.29911423,-4.76835537
1813,-1.848811507,-2.83811903,-6.710911274,-24.05581093,8.107995033,-6.347187519
1814,-1.469973087,-2.817869425,-6.398251057,-26.34178543,-8.520292282,3.02204442
1815,-1.168879151,-4.443622589,-7.336574554,-51.58145905,-38.38839722,17.12216949
1816,-0.247635812,-4.768954754,-7.254639149,-89.10991669,-35.93172455,26.43821907
1817,0.189157829,-3.800526619,-7.019789219,-121.0351486,-20.64802551,31.22020721
1818,-0.752358556,-4.031545162,-6.153705597,-136.4615631,-9.157299995,36.61043549
1819,-1.514365077,-3.696143866,-8.183168411,-143.7884674,-22.32701111,44.06896591
1820,-1.955019355,-3.462761164,-10.07406807,-157.7427673,-22.93144798,56.06676102
1821,-2.17575264,-3.128960133,-10.75035095,-165.1824646,-15.30329323,64.66234589
1822,-2.144726515,-2.974298477,-10.16471195,-158.6514587,-6.85116291,65.99912262
1823,-2.134359121,-3.025624037,-9.85408783,-144.296936,-1.281635165,60.18561935
1824,-1.691637158,-2.903545141,-10.36828613,-125.867012,-1.770535469,51.1203804
1825,-0.629583955,-5.010494709,-10.8910656,-110.7959747,0.809420824,42.79364395
1826,0.23882401,-5.435914993,-10.01671124,-69.04084778,9.911119461,31.1725769
1827,0.491043657,-3.007893801,-8.895945549,-48.46973801,6.85243988,27.35029221
1828,0.108007051,-2.78555131,-8.822034836,-46.96687698,-5.362217426,29.07114601
1829,-0.93100208,-3.477865458,-9.681020737,-35.09990311,-9.049369812,21.71948051
1830,-1.652170062,-3.268759012,-10.26313877,-15.95573235,-0.62652576,7.736394882
1831,-1.76004231,-2.375801802,-9.803471565,-4.146543503,8.667205811,-0.073751792
1832,-1.829479098,-1.061736703,-9.183615685,3.890475273,11.48907471,-0.990635574
1833,-1.479586601,-1.512111187,-8.662819862,-8.612895012,8.308199883,-2.565670013
1834,-0.806586266,-1.845478058,-8.913141251,-4.106116295,10.62785244,-11.7784462
1835,0.381898046,-1.8427037,-8.770439148,0.458262861,6.53804493,-15.73802662
1836,0.268018007,-1.059970379,-8.766489983,-9.664509773,5.003703117,-15.49750137
1837,-0.358227074,-0.60442251,-8.804037094,-14.90920734,3.190855742,-18.62433815
1838,-1.3166008,-0.475277275,-9.327248573,-14.68270969,1.276239395,-23.18362808
1839,-1.668184519,-0.432374537,-9.77393055,0.447525352,-5.166836262,-24.33639717
1840,-2.769059658,-0.079402193,-9.885699272,11.10366058,-9.516636848,-19.74051857
1841,-3.010226965,-0.194721296,-9.716846466,9.265181541,-7.614946365,-13.83828926
1842,-2.535444975,0.881887734,-9.743187904,-15.10395241,0.680472493,-9.036963463
1843,-2.057976961,1.130042911,-9.480796814,-35.37255096,3.830389738,-4.50070858
1844,-1.90743041,0.155158952,-9.189217567,-40.47255707,1.182129145,3.170634031
1845,-1.601365209,-0.335687965,-8.925581932,-41.95276642,-3.398930311,12.62587166
1846,-1.166712165,-0.085865453,-8.182826996,-46.15200424,-8.031086922,16.36649895
1847,-1.050256371,0.170242608,-8.333780289,-52.29775238,-12.61072445,19.48500252
1848,-0.875639081,0.247466534,-8.399752617,-57.93962097,-20.92785835,28.32855606
1849,-1.033462524,0.518415451,-9.004734993,-70.96153259,-17.41260338,33.91226578
1850,-1.357081294,0.95876956,-9.731045723,-83.1986618,-8.874248505,39.96525574
1851,-1.171815753,1.256361723,-9.163978577,-89.89756012,3.087469101,43.08473587
1852,-1.758369207,1.584440112,-8.616206169,-106.2956848,12.34804726,44.02783585
1853,-2.747483015,2.426900148,-8.964076996,-117.6436844,20.60658455,41.52025986
1854,-2.305213451,3.415928841,-8.817024231,-126.9042587,16.41229057,42.51692581
1855,-2.062460423,3.699405909,-9.013581276,-149.6882019,8.721234322,50.85222244
1856,-1.793339252,3.595613003,-9.165642738,-174.0207367,6.213172436,59.57748795
1857,-1.25174129,3.339291334,-8.833548546,-185.811554,4.875302315,63.0329361
1858,-1.296308517,3.70160985,-8.449069977,-204.6035461,12.50569534,58.82998276
1859,-1.526974797,4.096673012,-8.131674767,-215.8175812,12.3001194,55.80599594
1860,-2.193838835,7.06593132,-9.545211792,-206.7207642,-14.13891315,61.56983185
1861,-1.944833279,8.053855896,-9.644740105,-198.9400177,-36.54191971,68.77445984
1862,-1.468625307,7.052175045,-8.723619461,-220.0992737,-37.40515518,67.19875336
1863,-1.368270397,6.054095745,-8.564385414,-239.0789185,-23.79346848,56.76924896
1864,-1.135136724,5.561449528,-8.091030121,-228.3585968,-8.896883011,47.40473175
1865,-0.575352967,4.777787209,-7.062878609,-203.8191376,-0.326586127,41.23616028
1866,-0.720241189,5.160090446,-5.564866543,-170.8855438,-5.081428051,36.31850815
1867,-0.54964596,6.100244999,-4.18380785,-138.4781647,-14.12293911,33.48352814
1868,-0.191603333,5.976774693,-3.942213297,-117.2805405,-25.75659943,22.36479568
1869,-0.328971773,5.648979664,-4.583061218,-74.95560455,-40.15228653,14.21906376
1870,-0.90350157,5.342952728,-4.580866337,-13.59205341,-48.00229263,12.34825802
1871,-1.22508347,5.681133747,-4.603347778,25.09408951,-50.92960739,10.27262592
1872,-1.606233716,5.981096745,-5.462105751,56.65813828,-45.96336746,8.873195648
1873,-1.223469853,4.488816261,-4.946520329,69.9227829,-26.56960106,3.477780104
1874,0.333639562,4.723016262,-3.699659824,65.18988037,2.378067732,-14.44116688
1875,0.914232194,6.389066219,-2.433454037,78.85082245,5.685525894,-28.46489334
1876,-0.062771559,8.774255753,-2.779176712,98.39424133,-27.51289558,-29.26122475
1877,-0.910619915,10.06475067,-5.034045219,117.6497803,-54.7159729,-13.26823711
1878,-0.553555965,7.878581047,-4.211847782,95.84923553,-40.97267151,-13.72562599
1879,-0.445795864,6.890660763,-3.941649914,69.02671051,-30.64526367,-25.23000526
1880,-1.001318812,7.005917072,-5.701354504,95.43061829,-45.39770508,-25.44608498
1881,-1.351992369,6.131561756,-7.172751904,132.1139526,-53.93989944,-26.46048355
1882,-1.301084638,5.468358517,-7.866127491,139.1521301,-40.33107758,-28.77157402
1883,-1.121831417,5.430033207,-8.294661522,112.7357941,-21.85648918,-29.24701309
1884,-1.161574602,5.846207619,-8.912549973,84.29847717,-6.846056461,-28.11556625
1885,-1.855825901,5.845165253,-8.963638306,73.84159088,11.56544399,-24.76908684
1886,-1.667148948,5.030902863,-8.689988136,62.66311264,27.31467056,-23.34492874
1887,-0.964725375,4.800236702,-8.182847023,33.68648148,36.9848671,-19.55472755
1888,-1.277608871,5.652385712,-8.901457787,9.465633392,38.2749939,-11.48169041
1889,-1.444970131,6.591978073,-9.958310127,6.884151459,23.36770058,-4.860852718
1890,-1.892002463,7.354399681,-10.99138069,11.49048328,26.16145325,-0.331698149
1891,-1.827911496,6.048480511,-10.29132462,19.20259666,55.92336655,2.294061899
1892,-1.359997392,3.844184637,-7.912054539,13.52223015,74.07112885,-2.15791297
1893,-2.064265251,4.455636978,-7.607608795,10.38108253,59.28722382,-6.743219376
1894,-1.785669446,5.312782288,-8.763759613,35.41547012,22.31727028,-4.614963531
1895,-0.919542313,5.048696041,-8.656655312,36.99501038,12.73560524,-4.777729511
1896,-0.324083954,4.06315279,-8.060475349,30.01731491,12.25771904,-12.01546669
1897,-1.200624943,2.672433138,-6.596127033,42.80311203,18.84519196,-19.86204338
1898,-1.763265491,3.020220995,-8.112977982,67.53677368,-6.409281731,-20.21548843
1899,-1.416250467,3.772998333,-8.062353134,85.8186264,-23.19468498,-16.92915154
1900,-1.625042677,3.185522318,-7.824068069,65.7118454,-16.42230988,-15.9144659
1901,-2.272812843,2.20942378,-7.606534481,60.92871857,-9.456823349,-20.6239357
1902,-2.352523327,2.539590597,-7.131537437,62.67826843,-9.711638451,-26.12647438
1903,-1.817613006,3.503055573,-7.425186634,52.13285828,-9.680641174,-31.78011322
1904,-1.388208628,3.290812492,-7.964275837,44.93552399,0.385367274,-40.66029358
1905,-1.286121488,3.041715145,-8.240081787,53.71762085,5.972247124,-44.39997482
1906,-2.056847572,2.457667589,-7.988889694,69.88463593,1.370189905,-41.88536072
1907,-2.128821611,2.203323364,-8.535797119,80.37854004,-5.607244968,-34.42948532
1908,-1.140769005,1.137804627,-8.193325996,88.69295502,-1.08612752,-31.77602768
1909,-0.514538586,1.184450865,-8.096043587,83.93816376,7.491637707,-29.67786217
1910,-1.37197125,1.232262254,-8.271330833,74.28797913,9.266038895,-24.13311958
1911,-2.27051425,0.185611695,-8.56667614,69.72707367,8.30369854,-21.72570419
1912,-2.474794388,0.073940702,-8.494019508,66.52884674,16.39198494,-29.89684868
1913,-2.617545605,0.754792333,-9.158112526,70.97087097,23.07724762,-35.61260223
1914,-2.719988823,0.713378608,-8.329627037,80.47860718,31.79025269,-39.20771408
1915,-2.764902353,0.067209199,-8.805405617,102.8657913,30.68437576,-41.98733521
1916,-2.17945981,-0.85934639,-8.902432442,137.0238647,19.74862289,-46.11297607
1917,-1.234308839,-0.605825245,-8.82587719,166.4998016,19.0684166,-50.62644577
1918,-0.531305611,-0.733382702,-9.112611771,180.7851715,15.41329193,-49.16765213
1919,-0.60249126,-1.373884797,-10.24875832,177.6291351,12.01376534,-45.13066483
1920,-1.128868937,-2.372968197,-10.54591084,159.1912842,17.12025261,-41.85001373
1921,-0.981671989,-3.066267252,-10.95897293,149.0517273,16.15041161,-38.22720337
1922,-0.964047432,-3.976988316,-10.25311852,164.8358612,7.533441067,-33.14000702
1923,-1.82811439,-3.938546896,-10.33674717,156.246521,9.656808853,-31.33085251
1924,-2.408930779,-2.861177921,-10.37950611,159.6834259,15.61862469,-30.78034401
1925,-2.283047676,-2.507173061,-10.10723495,160.776413,19.57250786,-31.4323082
1926,-1.501336455,-2.237223148,-9.563808441,157.0265198,15.1122036,-33.08810043
1927,-1.307420015,-2.412277937,-8.557325363,145.9273834,8.611916542,-31.39683914
1928,-1.01949203,-2.574325562,-7.828288555,116.3349228,3.026388884,-27.68552208
1929,-1.077077866,-2.678652525,-8.809991837,84.9733429,1.998158574,-22.12321091
1930,-1.32854712,-3.185216665,-8.292598724,56.83607483,5.2942276,-13.14463329
1931,-1.352942944,-5.24027586,-7.585847855,18.1140461,1.962069631,-3.771308184
1932,-1.632470489,-5.443390369,-7.598379612,-0.13966611,-8.435724258,2.14033246
1933,-1.701414347,-4.404141426,-7.865941525,-7.463412762,-18.22572327,9.865074158
1934,-2.045588017,-3.037273407,-8.288722992,-14.20448875,-17.01815414,12.4043932
1935,-1.846933961,-3.080001354,-8.871664047,-32.10213089,-23.9905014,16.2543087
1936,-1.22084415,-3.086276054,-9.199032784,-64.81983185,-26.16971207,18.75433731
1937,0.360369742,-2.951986074,-7.649137497,-98.32735443,-8.817220688,22.14460754
1938,0.235214695,-2.836674213,-5.960160255,-139.5509033,6.23052454,24.19896317
1939,-0.488928646,-3.080872774,-7.493025303,-164.0891571,-7.911900997,30.76463127
1940,-1.308702111,-3.08027792,-9.880259514,-166.1552277,-18.57850456,46.47985077
1941,-1.881364465,-3.57227087,-10.66302109,-168.0270691,-21.74889755,53.98566437
1942,-2.003215313,-2.915380239,-10.39506626,-163.5763245,-18.09300995,52.76406097
1943,-1.969001532,-2.403765917,-9.781522751,-155.5707703,-13.52078056,50.31193924
1944,-1.476217151,-2.067374945,-10.00289631,-141.5402527,-8.343800545,46.74661636
1945,-0.719356596,-2.735480309,-9.943615913,-118.6022186,-9.650914192,40.53404999
1946,-0.167342752,-3.40930891,-10.65116215,-84.9380722,-9.909858704,32.37711716
1947,-0.23106806,-2.767334461,-10.30882835,-57.19126129,-4.216524124,26.88591766
1948,-0.313418955,-2.46254158,-9.693948746,-48.57170105,-2.956646442,26.11157608
1949,-1.040802836,-2.663298607,-10.01795959,-44.89744186,-6.431979179,18.86364937
1950,-0.997722685,-3.415570021,-10.78219986,-35.10862732,-9.41865921,13.68272972
1951,-0.991947889,-2.561504602,-11.03830051,-24.23224068,-2.583161831,3.685310602
1952,-1.308497906,-1.292998075,-10.78986168,-9.18269062,8.617206573,-8.271570206
1953,-1.525626779,-0.9418208,-9.941802979,0.870333493,14.40770054,-14.67895985
1954,-1.362886786,-0.598143339,-9.174627304,5.152983189,15.60869312,-14.85550594
1955,-0.701102078,-0.185240701,-8.516041756,-7.376526833,13.91447258,-21.10360909
1956,-0.22864376,0.627449811,-8.736332893,-9.204819679,7.768922806,-25.76830292
1957,0.015229188,1.455564737,-8.208553314,-15.18255424,4.898358345,-21.56957054
1958,-0.154859349,1.312850595,-7.93256712,-32.81888199,0.508190155,-11.81028366
1959,-0.595039964,0.755690575,-8.383917809,-38.49764252,-2.50715065,-3.599794388
1960,-0.874406278,0.454666078,-8.94443512,-38.08898544,-2.853794336,-4.974844456
1961,-1.460964084,0.185002163,-9.030950546,-21.0655117,-1.08814466,-8.346873283
1962,-1.876731277,0.758471131,-8.954737663,-10.35727978,-2.342090368,-3.812438726
1963,-2.080407858,1.313641906,-8.820153236,-16.70058441,-2.046622992,3.631417036
1964,-1.684910178,2.039293528,-8.547468185,-26.43811607,-3.284222841,7.837642193
1965,-1.574617743,2.029207706,-8.625628471,-35.57342148,-0.994213462,14.29601383
1966,-1.342237949,2.139830828,-8.456147194,-46.1169014,4.011975288,17.68982506
1967,-0.743795216,1.321303844,-8.401460648,-65.50145721,4.128765583,21.07374382
1968,-0.773963392,0.375543356,-8.613986969,-76.65322113,7.905594826,20.77235985
1969,-1.04875958,0.41973716,-8.846375465,-73.64581299,8.996244431,20.74240875
1970,-1.489979148,0.938305855,-9.616951942,-62.64075089,0.788992465,23.88891411
1971,-1.498408318,2.294638872,-10.23955154,-56.15055084,-2.553952932,24.44101524
1972,-0.801952422,2.857289076,-9.953281403,-59.1752243,6.425705433,30.31958961
1973,-0.642473757,3.336423159,-9.522490501,-76.83695984,17.44171524,29.04207039
1974,-1.249230146,3.218288422,-8.962060928,-88.37191772,23.90261459,27.55287552
1975,-2.36230278,3.31990099,-8.629390717,-107.1159134,26.85434723,31.8047142
1976,-2.570527077,4.726529598,-11.22231865,-111.5969849,13.52285576,36.60637283
1977,-1.17227447,3.400314569,-10.78230953,-109.7681351,13.04380322,39.2619133
1978,-0.504023015,2.882297516,-8.170454025,-138.3231964,25.23114014,35.86014938
1979,-0.550943971,3.93924427,-8.514122009,-144.086853,12.95716381,38.76065826
1980,0.105929568,4.590282917,-7.570533276,-143.9380035,20.76168823,38.44763565
1981,-0.170937955,4.241320133,-6.67437315,-152.7820587,33.46574402,29.62706566
1982,-0.86477679,5.419375896,-7.262099266,-161.6377411,8.205924988,32.23861313
1983,-1.408413649,6.824705124,-8.422128677,-147.8510742,-14.76858997,47.98468018
1984,-1.45072484,6.482964039,-8.13493824,-139.8752747,-19.035532,55.73789215
1985,-0.338706702,5.523305893,-7.139553547,-149.8629913,-14.96060944,45.68167114
1986,-0.370196581,5.206587791,-7.033103466,-163.1145935,-7.080815315,35.92424011
1987,-0.630224228,5.377289295,-6.689162254,-156.8503265,-3.841444969,31.85326004
1988,-0.516528308,5.869565964,-5.743349552,-142.2719574,-5.732411385,31.6822567
1989,0.116046861,6.428914547,-5.081593037,-130.3038483,-12.22805977,30.02178574
1990,0.795169115,6.816457272,-4.820605755,-109.5581894,-23.78016853,21.62082291
1991,1.046789646,6.324069977,-4.822048187,-88.190979,-37.71453857,14.32351112
1992,0.454720318,5.553138256,-5.230417252,-60.06124115,-48.67703247,8.925684929
1993,-0.412645936,5.637647629,-5.223005295,-27.88230896,-47.68117905,1.542932034
1994,-1.233048081,5.813949585,-4.978020668,-0.466499031,-35.66652679,-7.262988567
1995,-1.630915523,7.172976971,-5.923992157,25.73908424,-32.93365479,-11.2366209
1996,-1.113508344,8.997973442,-5.887028694,41.59333038,-30.29676628,-13.36888599
1997,0.391432434,8.323511124,-3.769042015,36.67978287,-16.72559166,-23.08276367
1998,1.619806051,6.724677563,-3.234227657,8.645382881,-0.349153429,-29.07357216
1999,0.584510982,7.17077446,-4.367464066,37.09324265,-14.33740234,-15.88790512
2000,-0.581795096,8.518989563,-4.273025513,73.22535706,-32.62643814,-11.90394402
2001,-0.332496077,8.97636795,-4.906006813,81.22328949,-38.50282669,-18.49276161
2002,0.034376282,7.559122562,-6.205078125,84.41983795,-32.04256058,-23.26687813
2003,-0.353782356,7.287346363,-6.777758121,93.64458466,-27.60039139,-25.44449234
2004,-0.875339448,8.005496979,-5.96612215,115.4793243,-33.22783279,-17.86051178
2005,-0.718624651,7.720383644,-6.700723171,99.69813538,-23.11393166,-17.45008087
2006,0.477935284,6.198419571,-7.627476692,51.27829742,-1.409405947,-23.90526962
2007,0.759771347,5.885325432,-7.873346329,12.96417809,7.640389919,-15.58705521
2008,-0.507640183,7.130483627,-7.854585648,10.00175667,6.103950977,-3.828895569
2009,-0.863686025,7.195198536,-7.288384914,16.66694832,-2.046417952,0.54206121
2010,0.117795706,5.767733097,-6.914291382,14.04755497,-14.13391495,3.974078655
2011,0.0529994,5.826694489,-7.935023308,9.975665092,-29.91501617,10.92324924
2012,-0.380580485,6.633061886,-8.541794777,10.50232029,-24.15793228,14.60238838
2013,-0.720601797,7.099825859,-8.98692131,5.82755661,-14.16261387,13.82489109
2014,-1.009726763,7.353849411,-9.482193947,18.4346714,4.073174477,7.567008018
2015,-0.917884231,5.826227188,-7.730624676,33.31334686,34.92895889,2.339412689
2016,-1.286291838,4.769805908,-6.230814934,24.63916206,44.12823486,-3.559134483
2017,-1.67279923,6.020271778,-6.527924061,31.3146553,33.35424423,-10.585145
2018,-2.066562176,6.208017826,-7.228208065,42.02238464,10.22342682,-12.24368668
2019,-1.743310928,4.897143364,-8.136592865,40.00744247,-0.168020383,-13.89689922
2020,-0.621840119,2.645218134,-7.278386593,48.22418213,15.2154026,-20.35586739
2021,-0.787937105,2.776765347,-5.872685432,64.78040314,27.37595749,-31.77454948
2022,-2.270120144,5.249658585,-5.653900623,81.80539703,13.14212799,-34.21030807
2023,-2.259949684,6.465896606,-6.228531837,73.00183868,-11.13286972,-28.92820168
2024,-1.405099034,4.671214104,-6.023945808,38.29910278,-18.01268578,-26.66557884
2025,-1.459140301,3.384209633,-6.75377655,13.81018257,-17.01794815,-23.45754433
2026,-1.58874476,3.41353488,-6.963372707,20.67131424,-14.97040749,-24.59407806
2027,-1.287008643,3.369267464,-6.157477856,39.03230667,-1.380383968,-33.87409973
2028,-1.153494954,4.845634937,-6.593368053,52.74864197,3.51203537,-39.34109116
2029,-1.582951665,3.897975445,-7.831049919,82.62230682,-8.656961441,-42.74244308
2030,-1.377969265,2.068416119,-9.227561951,93.32329559,-10.03582668,-46.43876648
2031,-1.78924942,1.979488611,-12.1734457,118.1177444,-14.68837643,-42.33958435
2032,-2.71600008,1.827341437,-11.0412035,124.9027252,5.293572426,-37.16329956
2033,-2.706455469,2.075083971,-9.36497879,114.5720367,19.12301445,-34.1057663
2034,-2.78373909,1.000282526,-7.036961555,116.3816452,35.06214523,-35.3360939
2035,-3.300162315,0.26608023,-7.442869186,133.951828,34.50642395,-44.31506348
2036,-2.258353233,0.552864909,-8.939015388,172.8791199,28.23362732,-57.0502243
2037,-1.403341055,0.712429345,-10.12793064,213.1391907,29.35514641,-57.80122757
2038,-0.679899991,-0.772536993,-9.333019257,232.2971191,36.00946808,-54.58212662
2039,-0.896296203,-2.766334057,-9.107599258,233.8900452,27.82210732,-54.16078568
2040,-1.728376389,-2.212468624,-11.07543278,247.2917328,11.39112186,-53.69232941
2041,-2.366075754,-1.014057159,-11.50884819,246.0169678,10.88287258,-48.59498215
2042,-2.578148127,-1.210141659,-10.59611702,215.2767029,12.27387047,-45.47258759
2043,-2.36644578,-1.942842841,-11.0034647,209.2666168,9.379813194,-47.18526459
2044,-2.245867729,-2.757875919,-10.72518253,221.5617981,19.93902588,-50.12719727
2045,-1.859597087,-3.203825235,-10.5205946,201.1623383,31.15809059,-48.62985992
2046,-1.378947854,-2.173266888,-10.51748276,163.7666168,25.80135727,-42.51597977
2047,-1.141192675,-0.706548274,-10.26086712,149.7365723,14.12046051,-37.84093475
2048,-1.112701535,-1.266414285,-10.49874878,135.5129242,8.58540535,-30.25235367
2049,-1.105436921,-3.065727949,-8.639035225,102.9789581,26.52723122,-23.93553162
2050,-1.011778235,-4.486065865,-6.871999741,51.7594986,38.57658386,-19.00560188
2051,-1.095873475,-2.917710543,-6.788417816,8.096178055,29.64058685,-11.52968311
2052,-1.026554704,-2.063632965,-6.090251446,-17.26748085,25.26565361,-0.007907948
2053,-1.901720643,-2.952422857,-6.753691673,-44.8011322,8.390169144,8.332206726
2054,-2.883091927,-4.181925774,-8.426195145,-50.4064064,-18.00252914,15.07161808
2055,-2.630997419,-4.654849529,-9.570607185,-49.15138245,-38.59206009,18.91497421
2056,-1.286957264,-4.148937702,-9.030854225,-70.82839203,-37.96169662,23.05414391
2057,0.278020889,-2.609645605,-7.963303566,-102.6030807,-22.71029472,25.98386765
2058,0.332111537,-3.054859638,-6.760406017,-133.3830872,-12.6609478,26.99868202
2059,-0.487771153,-3.701895237,-7.31951046,-164.3232574,-21.47019958,33.92652893
2060,-0.918383539,-2.667519569,-9.520025253,-168.7442932,-27.65024376,40.35673141
2061,-1.110723734,-3.282814503,-10.0589304,-175.1073761,-28.08398056,42.69173813
2062,-1.263623834,-2.877230167,-10.79961967,-168.3404541,-25.21666527,42.00587082
2063,-1.584259272,-3.288670778,-9.708521843,-156.4337006,-20.68011856,41.55575562
2064,-1.307266593,-2.721334934,-9.442333221,-138.0074921,-23.15843201,38.86162567
2065,-0.746640265,-2.828727007,-8.642715454,-112.5027771,-28.08823204,36.12887573
2066,-1.0501436,-3.180583477,-8.635087013,-95.8079071,-37.73963165,32.80609512
2067,-0.691975594,-2.778808117,-9.168515205,-78.96404266,-38.95539856,25.92193031
2068,0.042473931,-2.263412952,-8.556804657,-77.40599823,-30.8044548,20.86299133
2069,-0.19933337,-2.119894981,-9.194584846,-69.78396606,-16.43482971,16.12989998
2070,0.135068372,-2.474810362,-10.42986107,-59.32155228,-8.40951252,8.611260414
2071,-0.079249442,-2.578598022,-11.3711977,-37.53412628,-0.268038243,-3.055828094
2072,-0.453036577,-1.155396461,-11.15252781,-10.50993252,11.52177143,-15.3465147
2073,-1.24423027,-0.128033027,-9.902182579,1.677335024,16.25481224,-21.49864769
2074,-0.662517011,-0.221892908,-8.649850845,3.657681704,17.01552963,-20.46657562
2075,-0.19028005,-1.288081884,-8.653920174,16.12878227,16.26281548,-28.65554237
2076,-0.679552734,-0.961672187,-9.047602654,37.03391266,13.92205429,-35.01054001
2077,-0.349580556,0.08848118,-9.798529625,50.94102478,9.710442543,-30.29815865
2078,-0.382254809,0.741911352,-9.658848763,34.8938446,7.130302429,-18.56640434
2079,-1.149513841,1.112614989,-9.446621895,14.05724144,11.06979465,-16.70463371
2080,-2.139489889,1.24910903,-8.657279015,9.277238846,9.983740807,-18.66266632
