PacketCounter,Acc_X,Acc_Y,Acc_Z,Gyr_X,Gyr_Y,Gyr_Z
498,4.529889107,5.000586987,13.07254505,95.73078918,-1.126999497,33.25235748
499,8.695478439,-1.243612885,8.977761269,138.0627899,-27.8134079,57.8822937
500,10.06636906,-4.143088341,4.744424343,94.37026215,29.41087341,36.75983429
501,15.20045567,-3.156649113,7.060339451,93.18823242,-41.92868042,21.97881699
502,5.814632893,-2.576513529,6.320466042,60.7040863,-164.3049164,-38.18838882
503,7.68113184,-0.592524767,5.859086037,48.59716034,-161.5281372,-59.87827301
504,15.17354774,3.693237782,4.743740559,61.55628204,-142.2609406,2.049362659
505,-4.636844635,1.801236629,12.85647964,29.39316559,-209.019516,47.44229889
506,-7.199140549,-0.2006073,10.4384346,33.4461441,-175.3080444,40.18406677
507,-10.27059746,-0.775046766,9.024336815,-4.812781334,-150.7091675,-2.430788755
508,-5.237713337,-1.198389649,10.30281258,22.43398476,-99.98910522,-16.9853363
509,5.791556835,-0.069743246,11.98958683,7.323337555,-44.30593109,-16.08647919
510,6.578652859,1.950640321,14.17193985,17.19591713,-52.20397568,4.111798286
511,4.965788364,3.162985086,12.00620556,-0.865799189,-9.693372726,6.577478409
512,-3.640211582,3.533439636,11.8836956,-6.093760967,-21.74803352,-9.027433395
513,-0.872881651,3.782805204,10.06045341,12.92418671,-21.12745476,-14.80381393
514,1.897839189,1.931608438,8.426096916,9.414791107,-52.13271713,-4.360669613
515,0.543395877,0.032159746,9.018268585,-1.589428306,-58.88114929,-3.99072504
516,0.98852545,-0.130472928,10.2013855,7.536376953,-61.66023636,-3.185737848
517,1.537263632,0.780875266,8.284549713,30.28910637,-65.66336823,-11.15368271
518,2.672734737,1.192393899,6.420791149,24.79724884,-70.17233276,-24.6020031
519,0.397899359,1.18763268,7.330304146,10.97875595,-44.08283997,-10.08806133
520,3.056309223,1.523920417,8.820822716,11.02450562,-8.572170258,-10.82761478
521,4.72786808,1.686104774,11.14203548,21.38465881,4.373780727,-11.87897682
522,3.746682405,1.79409945,11.43780708,30.65986252,-5.712459564,-8.688409805
523,3.202459097,2.151053667,10.88941574,22.43403244,-13.07873535,-6.895903111
524,2.88567996,2.012099981,9.905187607,4.195817947,-14.1020298,-4.321506023
525,2.952846527,1.17369771,9.914113998,-5.629165649,-16.46762657,-0.80633986
526,3.099203348,0.523569345,10.4940567,-8.300089836,-19.17429543,-0.82863605
527,3.349424601,0.347413182,11.0661602,-1.659820437,-19.72002602,-4.187912464
528,4.016215801,0.933353662,11.54271793,7.38268137,-24.44063759,-9.661456108
529,4.1270895,1.897230506,11.32660103,12.83914089,-27.89838791,-13.53388214
530,4.055309296,2.658627987,10.68042469,13.11298656,-34.74006653,-13.03009796
531,3.761800289,3.072125196,9.939203262,14.73033142,-40.37571716,-10.47145271
532,3.445581198,3.375781775,9.504940033,10.31592274,-37.07988358,-5.339226246
533,3.44879365,2.95148015,9.342741966,1.127301812,-30.42658806,1.600728512
534,3.593419075,2.250105381,9.303421974,-5.334203243,-24.88798523,7.095010281
535,4.020189285,1.723903179,9.188241005,-11.33188343,-23.27278709,9.740530014
536,4.237219334,1.402205348,8.977293968,-16.8230896,-22.58386421,11.27874756
537,4.083973408,1.334212899,9.059109688,-19.92081451,-19.89430428,11.2770586
538,4.221157074,1.379862309,9.077245712,-24.69317436,-13.84135056,10.03340244
539,4.254463196,1.520315766,8.994329453,-28.07596397,-10.38384533,8.833639145
540,4.261811733,1.326465249,9.203144073,-24.78297043,-5.587424278,7.075940609
541,4.206418514,0.962848663,8.906745911,-22.95436478,-1.541208982,5.928051949
542,4.209908485,0.663663149,8.517812729,-16.75255585,5.685404301,4.12733078
543,4.193187714,0.559243739,8.811493874,-15.86630249,8.867605209,3.560111523
544,4.206359863,0.565437257,8.449214935,-22.34930038,8.89877224,-0.47719112
545,4.019479752,0.7393803,8.373073578,-19.33395386,4.712404251,-2.210545778
546,3.950578928,0.994763553,8.871109962,-10.84053993,1.206813216,-1.459860444
547,4.132337093,1.389277458,9.115731239,-7.923137188,-5.242012024,1.250149846
548,4.068119049,1.384748936,8.980701447,-11.87852859,-11.76671696,3.47762537
549,3.863973141,0.891594946,8.729320526,-13.64234066,-13.9377203,4.165968895
550,3.884444237,0.750068307,8.727563858,-13.56431484,-16.88884926,3.811553717
551,4.07028389,0.725319684,8.927688599,-17.12266541,-19.21125793,2.317141533
552,4.086984634,0.79235661,9.102472305,-21.1625824,-20.40682602,1.586218357
553,4.195483685,0.822306275,9.189588547,-24.30051041,-21.21629333,1.614700913
554,4.520288467,0.965290666,9.065965652,-26.37915802,-22.55518913,1.186494112
555,4.597742558,1.056970596,9.009169579,-27.11993217,-24.51444244,1.325892568
556,4.435504913,1.002475262,8.918067932,-26.27555847,-26.57619095,2.827137709
557,4.593114376,0.862220347,8.832549095,-24.19928741,-27.39634514,3.536138058
558,5.086242676,0.604671478,8.772941589,-22.57084465,-29.69674492,5.630487442
559,5.309897423,0.37039417,8.604668617,-13.06215668,-34.16160202,6.95554018
560,5.112384796,0.39244765,8.442632675,0.193588123,-36.80023575,5.349705696
561,4.979954243,0.202568486,8.09493351,8.026978493,-37.47121048,3.779973984
562,4.92884016,-0.289199412,7.959126949,7.299412251,-32.85574341,3.258518219
563,5.313435078,-0.27674225,8.140370369,2.923703432,-26.37375832,-1.349101067
564,5.667085171,0.136855468,8.298204422,-0.834656358,-28.37725639,-5.244805336
565,5.384020329,0.474789649,8.207789421,-3.222765446,-27.76762581,-2.250888586
566,5.617998123,0.765353143,8.229223251,0.44861424,-29.81107521,-1.541748524
567,6.12904644,0.508308411,8.123432159,4.29169035,-36.47914886,-2.472584963
568,6.059230328,0.154744953,7.703343391,2.436607361,-39.62304306,-3.026502848
569,5.963430882,0.246947348,7.430009365,3.9007442,-43.21068192,-4.677806377
570,6.587476254,0.594747305,7.960126877,8.024618149,-51.07692719,-4.770231247
571,6.397580147,0.727765381,8.152311325,17.79831505,-57.08007431,-2.67215538
572,6.776250839,0.157772824,7.88272953,29.489048,-59.82476807,-0.860459268
573,7.111665726,-0.990575075,7.945403099,17.16365433,-61.16610718,-1.952842474
574,7.062848091,0.417226702,6.903460979,25.44148445,-62.40847015,-6.025779724
575,6.280866623,1.370786667,6.414784431,32.22518921,-60.86380386,-6.047925472
576,5.897542,2.379246235,5.997736931,34.57093048,-54.63044739,-4.882045269
577,5.889836311,1.806753278,6.32233572,58.84955978,-39.47232437,-0.601921916
578,6.057018757,0.668563306,6.695208549,56.1603508,-33.46301651,4.404139042
579,6.142807484,1.19326663,6.963782787,35.59815979,-36.69823074,3.257549524
580,5.485996246,2.172348976,6.543863773,14.56861401,-33.2028923,1.874890208
581,5.567611217,1.387114286,6.868252754,12.38555813,-23.58327103,3.392006874
582,5.528581142,0.309094012,7.19512701,10.55660343,-15.71538448,5.901526451
583,4.670040607,-1.153237581,7.378770351,3.933079958,1.783072948,3.817028522
584,3.998703241,-0.597264051,6.982884407,-3.7366817,21.3551712,-4.021777153
585,3.147093773,-0.016756061,6.807971478,-3.478745699,34.87155533,-8.277998924
586,2.064572096,0.800566912,6.170877457,-5.436790466,53.48944092,-15.94304466
587,2.188187599,1.179963827,5.947697163,-7.078595161,66.80506897,-12.36320972
588,1.740322471,0.707060575,5.936933994,-9.46866703,71.87664032,-7.200926781
589,1.818467379,0.75468874,6.137878418,-16.43663788,76.12400818,-1.05312717
590,0.551181495,0.131051674,5.836386204,-29.59450912,85.30765533,4.88939333
591,1.32141602,-0.683095872,6.199242115,-41.88791656,89.60325623,1.251934409
592,2.326739788,-1.282433152,6.100500107,-43.92376709,86.83550262,3.434553623
593,3.284674168,-1.103645682,6.687005997,-43.0669632,82.50076294,5.071450233
594,3.800040245,0.870359242,7.002283096,-38.10110092,84.14767456,4.657649517
595,3.177726984,1.887388706,7.094382763,-26.65092659,85.96427917,4.084503174
596,3.776198149,0.15679656,7.90505743,-21.03846169,85.64970398,-2.064926624
597,3.69963336,0.20499514,7.944004059,-14.13625813,86.31071472,-13.83294487
598,5.244508266,1.861552954,7.641013145,-14.44691372,83.77462769,-22.18330002
599,5.20162487,3.171364784,7.962753296,-15.72135067,77.08918762,-25.23594093
600,4.383710384,2.126105547,8.46693325,-8.306211472,72.72997284,-27.5679512
601,4.670109272,1.712759256,8.478041649,3.923936367,68.36358643,-30.13320351
602,6.615913868,3.06223917,8.935377121,5.757911205,62.64757538,-24.605299
603,6.8274436,3.535174608,8.972705841,-0.163974375,54.2798233,-16.53392792
604,7.924259186,2.092781305,10.13888741,-6.840900421,54.64494324,-18.1184597
605,10.47609425,-0.127262741,11.22027683,4.865818024,57.27437973,-22.48503494
606,11.58284092,-0.131475791,11.27102566,29.8504467,64.86488342,-20.79146385
607,11.41219425,0.828913152,11.06106186,37.88483047,65.76863098,-12.14306641
608,11.1178751,-0.945239902,10.13407612,25.25399208,68.70394135,-11.65925598
609,10.26347828,-1.574331164,9.127799988,25.63267326,66.36132813,-18.54336929
610,9.163925171,0.459573507,7.152504921,15.3946352,73.90033722,-22.59319878
611,8.275964737,2.040123224,4.673895836,-10.30173874,82.15446472,-17.57726097
612,7.240198612,2.63093996,4.004689693,-31.40927696,72.85281372,-13.07152271
613,4.768247604,2.6016469,3.554624796,-47.13237381,49.52353668,-4.498701572
614,2.901257277,2.464051008,3.63708663,-29.69275856,5.890152454,-5.679365635
615,-0.951271653,0.29172945,6.864635944,-36.7244072,5.61295414,3.803766966
616,-5.495809555,-1.774022698,9.554531097,-13.12862778,26.67389297,11.46394444
617,-5.450212479,-2.238135815,9.831111908,-14.51542091,24.40108871,20.54520798
618,-0.433603078,-2.021532059,10.649436,-19.64877129,14.82476139,18.22485924
619,3.831747055,-0.731904864,11.36244488,-12.78068256,13.72216225,12.31025982
620,4.654020786,1.351620197,11.6453495,10.85946941,20.79820251,9.871456146
621,3.682490826,1.818270683,11.49610806,6.25823164,23.08784866,17.59760857
622,1.047577262,1.588763595,11.65325451,0.43205604,29.52736282,18.66687775
623,0.014506366,0.930751681,10.71826267,-2.866869688,30.94978333,21.64097595
624,-1.167531967,-0.59250617,10.9364748,-1.066710472,30.09175491,23.81740379
625,0.839176178,-0.528986812,10.31251812,1.187669992,25.25873566,6.81139946
626,1.105538607,-0.535435796,9.059392929,10.32135773,22.59573364,-3.632234812
627,1.171374679,0.522984147,8.51858902,11.76586437,20.57191277,-5.78242445
628,1.006100655,1.077634931,8.311623573,0.745272517,14.93967628,-5.657862663
629,0.753892004,0.684950054,8.309020042,-6.85086298,11.04268551,-1.85661447
630,0.245891511,0.831833363,8.626241684,-15.96154785,10.3133316,3.996002197
631,0.676699996,0.301304042,9.072999954,-24.37321091,8.044374466,8.065069199
632,0.349867046,-0.857181609,9.502269745,-24.6233139,6.084317207,6.735265732
633,0.138178274,-1.288273692,9.956977844,-17.28346825,3.765627623,1.012554407
634,0.377549499,-0.486697942,10.09751034,-5.064591885,-1.78532052,-0.799270034
635,0.354677409,0.108614482,10.11726856,-5.723556042,-3.475990295,-1.740652442
636,0.206914917,-0.410668254,9.796139717,5.227483273,-10.33294868,-4.0315938
637,0.874615133,-0.737227678,9.891076088,11.82468224,-20.18676376,-2.837572336
638,0.566053927,-0.35586381,10.03067589,16.27729416,-26.55523872,-3.019606829
639,1.086322784,0.021574363,9.736091614,23.08808327,-33.71455765,-4.887956619
640,1.71977067,0.375354409,10.0582695,25.68212128,-36.90104294,-5.608990669
641,1.571202993,0.71866399,9.785324097,21.56269264,-33.24395752,-6.053122044
642,1.410908937,0.81363982,10.01563835,18.56190872,-36.53459167,-3.978879452
643,1.345687389,0.409450918,10.21024799,16.98792839,-38.97248077,-1.291746259
644,1.642290831,0.204110608,10.30845356,16.22363853,-39.05251312,0.815199673
645,2.292879343,0.817361057,10.27750397,18.10138702,-38.56207657,2.328164577
646,2.41566515,1.220311284,10.18195343,13.55850983,-33.50482178,4.162998199
647,2.220177889,1.271657825,10.40330696,4.970093727,-32.65722656,4.154095173
648,2.473428249,1.132172704,10.00619411,-9.558935165,-28.74312973,5.668859005
649,3.098167896,0.632374167,9.51091671,-23.07469368,-28.31977463,5.406578064
650,3.174505472,-0.123954579,9.147559166,-28.53895187,-24.67137718,3.517108679
651,2.451167107,-0.715485334,9.010852814,-23.61333275,-23.40820122,1.568201065
652,2.917185307,-0.364979267,9.31219101,-11.12495899,-26.72613525,0.152005404
653,3.273572206,0.399365723,9.547968864,-7.178583622,-28.82468605,3.258579731
654,3.705134153,0.45577231,9.122158051,-9.343364716,-28.71765709,6.936013222
655,3.594181299,0.247986004,8.894338608,-10.30587959,-28.21257401,6.696225166
656,3.581145287,0.212264225,8.591690063,-14.81211376,-25.82570076,5.933181763
657,3.593908548,0.08022967,8.830184937,-16.15505791,-29.08055878,5.749068737
658,4.243053436,-0.13855435,9.255304337,-10.26797581,-30.10788345,1.909388542
659,4.261079788,-0.07255321,10.05307293,-7.695625305,-34.8981514,0.099806741
660,3.907678127,0.180247486,10.28317165,6.812203884,-46.04940796,-4.204394817
661,3.939736843,-0.951890945,10.16966152,27.14236641,-42.16893768,-0.881340683
662,2.21737504,-3.064074993,9.199715614,20.29485703,-75.67341614,-1.751946211
663,3.826938152,-3.125801325,9.430835724,-9.229929924,-96.3408432,-19.6071682
664,4.776887894,0.515009224,8.446615219,-1.931519866,-101.2052002,-36.04785538
665,5.241977692,2.06401062,9.076337814,31.62805176,-110.4383392,-29.20104408
666,5.243637562,2.308604479,8.343941689,61.78902817,-117.1950226,-12.54721546
667,4.912498474,1.070058823,7.973513126,63.41060257,-110.9901733,1.485526085
668,4.349142551,0.519210339,7.5452528,65.06524658,-98.57132721,8.779821396
669,4.394936085,0.557567716,7.362830639,57.66897583,-91.79667664,8.790664673
670,4.177295685,1.116931319,7.494346142,49.73954391,-96.16047668,10.99529362
671,3.791994095,1.521250367,8.009775162,42.05413818,-100.3342361,13.79097939
672,3.608198881,1.96308279,8.064921379,33.669384,-92.06222534,16.74978638
673,3.227858543,1.915204048,7.783668995,25.22739029,-78.58260345,16.40752792
674,2.798420429,1.604418635,7.750442505,16.28857613,-68.18575287,11.82650948
675,3.01855731,1.541476727,7.422881126,13.40910912,-60.73768997,9.537412643
676,3.60306716,2.146351814,7.29594183,8.78758812,-49.81668854,9.281957626
677,3.502060175,2.300815582,7.211949348,-5.028911591,-35.84687805,10.18693161
678,3.531273127,0.817287266,7.244099617,-18.17713737,-22.69184113,7.82046175
679,4.441926003,0.181039244,7.250010014,-27.94603157,-6.749403954,8.821882248
680,4.522163868,0.29281956,7.023419857,-35.99041367,16.69478798,13.67638969
681,3.836012363,-0.542544782,7.198288918,-34.2973671,38.39603806,15.64204502
682,3.489286423,-1.308968306,7.126272202,-38.65079117,58.11580658,10.66980362
683,3.94593811,-0.902117252,7.133856773,-38.32997894,69.78942871,-1.566661358
684,4.130474091,-0.177169085,6.657182217,-23.86129189,77.53935242,-11.91600227
685,4.118179321,0.14186579,6.533280849,-0.586939991,75.94285583,-11.90216064
686,3.912017107,-0.026147567,6.774077892,10.84023476,73.87802124,-8.958335876
687,3.877582073,-0.042863555,7.043000698,1.842332721,68.32249451,-3.981815815
688,4.183932781,0.502210438,7.654441833,-6.313862801,67.29089355,3.422622681
689,4.10297966,0.704718828,7.730250835,-8.067508698,67.72463226,11.80500889
690,4.945043564,0.776074886,7.851587772,7.122751236,65.07170105,9.473226547
691,5.433972359,1.214735031,8.413259506,-6.022075653,49.68162155,13.78239346
692,6.240232944,1.293511987,8.735907555,-15.55909061,24.02757263,25.90863037
693,6.217350006,0.239509597,9.048501015,-22.4506321,7.626769543,32.34607315
694,6.25169754,-0.765869796,8.012730598,-28.83524513,-0.291448563,27.38935852
695,7.681726933,-1.033214092,7.434606075,-18.23666573,-8.380582809,13.54673195
696,10.25137615,-0.254676849,10.33285618,9.426085472,4.469564915,-0.981965661
697,13.44558334,0.641041875,11.70144463,9.205778122,26.65559959,-9.899108887
698,16.20724106,1.34705019,9.447413445,-15.56078815,44.94400024,-6.037063599
699,16.20821953,0.895347774,5.885550022,-25.67542267,63.27724838,1.06540978
700,14.28743076,1.046256304,5.15822506,-16.72496033,90.02546692,-3.827264547
701,11.22575283,0.864895284,4.755700111,-9.913096428,107.8123398,-15.0413723
702,9.873198509,1.440706491,3.386006117,-5.760221481,90.15293884,-10.75584221
703,10.06618977,0.875480115,3.009585381,15.05456829,61.47073364,-0.412690461
704,8.238936424,0.219666764,3.24688673,13.13953876,45.1499176,0.291660488
705,4.883662701,-1.595430017,4.862004757,13.80749226,31.63106155,-11.77113914
706,0.164331228,-3.556156635,5.335771084,7.400026798,27.17835808,-11.22069168
707,-4.474555969,-1.031262159,8.473670006,-1.861043692,41.66976166,-12.29832649
708,-4.176015854,0.436118811,8.25032711,-3.810976982,29.0796299,-5.892514229
709,3.452019691,-0.172206119,9.81374836,4.624287605,24.30947113,-6.347520351
710,6.497382641,1.716935277,10.37261391,14.26284885,23.20763397,-1.84054625
711,7.297461987,2.481103182,10.51023006,-2.358088732,22.01745224,6.245995045
712,5.105730057,0.614005685,11.03617382,-22.65670013,20.87580872,6.522071838
713,1.515657067,-1.178964734,10.57390785,-29.21158981,22.7195797,3.366671085
714,0.309562355,-1.87058413,10.50105762,-29.6815567,17.95234489,5.129740238
715,1.193880796,-1.162334919,10.12074089,-32.62597656,8.780191422,7.783354282
716,2.40149498,-1.056821108,9.989832878,-25.48469162,-4.677851677,9.013279915
717,2.623347998,-1.182886362,9.80130291,-8.799904823,-13.49448681,5.670023441
718,2.410278559,-0.339458406,9.471747398,9.202795029,-21.87148094,0.518779814
719,2.046282053,0.670012057,9.17678833,16.06893921,-24.50172234,-3.675689936
720,2.298619747,0.843870759,8.667150497,13.60373974,-23.43445015,-1.121749401
721,3.087570667,0.811110914,8.632826805,15.92045784,-23.67782974,2.082926512
722,3.619644642,0.705079734,8.851751328,11.2613945,-20.50903893,4.404797554
723,3.978158951,0.198833391,9.242570877,3.721394539,-13.25051308,9.519794464
724,3.736886978,-0.877784431,9.450802803,3.387224436,-4.101044655,12.40145493
725,3.034047127,-1.398405075,9.740787506,8.655004501,0.699604988,12.2262764
726,2.360625267,-1.147157073,10.13667774,15.53159046,-1.1950773,9.509128571
727,2.41310358,-0.51695019,10.35124302,24.09811401,-6.82090807,2.62681222
728,3.101896286,0.272646904,10.23559666,28.65337563,-11.83673,-4.379504204
729,3.468372107,1.149991393,10.12393093,26.17593384,-12.55150318,-4.747175217
730,3.676958561,1.472854137,9.89858532,21.96253014,-10.72062683,0.095375478
731,3.775772333,0.921774089,9.307056427,15.39228439,-7.240808487,5.082685947
732,3.500820398,0.092901021,9.041777611,10.86194134,-12.3026123,7.573100567
733,3.951130152,-0.568814933,8.769405365,10.60109043,-14.95856571,5.636100292
734,4.025783062,-0.84507978,8.924643517,15.19693851,-12.30936527,2.202381611
735,4.060824871,-0.314489275,8.807742119,21.37234306,-8.056667328,-1.553310513
736,3.410717487,0.812770665,9.049258232,20.75156212,-5.368904591,-2.010267258
737,3.81678915,1.225785017,8.87301445,12.62510395,-4.393605232,-1.390450358
738,4.369080544,0.794216812,8.921823502,0.542867601,-0.870114684,0.609857619
739,4.474528313,0.181779996,9.040665627,-3.577735662,4.027015209,2.383178711
740,4.275476933,-0.122952059,9.453076363,0.842843592,5.078480244,2.963933945
741,3.919765234,-0.358823568,9.154892921,9.862642288,1.331969857,1.199155092
742,3.715346098,-0.213751882,8.783201218,17.22272301,-3.284704447,0.992346048
743,3.966922522,0.466624588,8.791604996,16.69652748,-11.51872635,3.02286005
744,3.723242998,0.299394667,8.448482513,6.083402634,-17.17724419,7.097602844
745,4.004888535,-0.119948454,8.60617733,6.196630955,-25.54451942,8.496619225
746,4.544183731,-0.201474324,8.557134628,17.81552505,-33.37897873,7.671984673
747,4.877371311,0.467757493,8.419383049,24.92113686,-40.34063721,8.521486282
748,5.066048622,0.921518505,9.012120247,11.91476822,-41.11268616,8.53311348
749,4.681341171,1.129703999,9.135607719,-18.1974411,-37.91812134,8.832282066
750,4.359684944,1.144806147,8.585813522,-40.97063446,-43.32523727,7.668251991
751,4.660484791,0.20881851,7.564751625,-44.50963974,-54.98704147,2.045933723
752,4.585416794,0.280230433,7.216923237,-21.95936966,-54.903759,-2.812936544
753,5.016012669,-0.443053097,8.501760483,9.463955879,-59.48002625,-3.816315413
754,5.249717712,-0.134853452,8.987103462,16.09617043,-70.57035828,-3.155863047
755,5.413285732,0.117863819,8.453354836,15.78561401,-70.89618683,-3.654475212
756,5.993327618,0.265208811,7.855084419,7.28962183,-66.15765381,-1.214854836
757,5.814336777,0.224159509,7.625140667,16.07482529,-69.31983948,4.896371365
758,4.950064659,-0.502429485,7.858907223,35.08517838,-72.33964539,9.430269241
759,3.925971746,-0.584406972,8.033180237,51.13820267,-75.7877655,13.70077991
760,3.052314758,0.191443592,7.970122814,50.59145737,-74.46041107,12.92415619
761,3.199170589,1.290175676,7.849066257,42.94960785,-71.16739655,7.036908627
762,3.375630379,2.148216724,7.841745853,36.32644272,-68.7930069,4.102236271
763,3.478964806,2.662583351,8.33075428,29.85149574,-63.93100357,7.574943066
764,3.934157848,2.820473909,8.20877552,18.67199135,-52.14847183,12.88969326
765,4.07972002,1.727221727,7.795222282,2.453140497,-37.03023148,16.02035332
766,3.901354551,0.111803547,7.596083641,-16.8322525,-20.86484337,17.7600441
767,4.014138699,-0.519504488,7.424672127,-22.92019081,-2.062865496,16.33877945
768,4.308045864,-0.362512141,7.196364403,-23.00297928,16.09327126,11.00764942
769,4.383691311,0.107051678,7.087693691,-25.28143501,27.39881516,4.398855686
770,4.372159004,0.207922488,7.134800911,-27.67566299,43.40065384,0.689071298
771,4.013463974,-0.140446648,6.975491047,-29.33112717,56.94007111,-1.386038303
772,4.054240227,-0.49363786,6.997270584,-26.37951469,72.08589935,-3.300520897
773,4.235393047,-0.509920657,7.038234711,-24.17397118,77.43955231,-5.984534264
774,4.126454353,-0.197337002,7.05645752,-25.17078781,85.55958557,-9.547418594
775,3.909467459,0.91073966,7.153877735,-30.04056931,92.91036224,-10.80887604
776,3.644151211,1.26456356,7.333656311,-29.9709053,91.48282623,-7.345066071
777,3.286959171,0.732065916,7.496379375,-21.57842636,90.86229706,0.280807048
778,3.587604284,-0.528583765,8.067781448,-11.89459896,86.05306244,5.569085598
779,4.931600094,-1.333088875,7.910147667,-4.177222252,81.00576782,11.60479164
780,5.214030743,-1.163242102,8.975048065,1.388633966,66.35180664,11.72001457
781,5.464574337,-0.758625805,8.975462914,-2.286702633,39.47787476,11.08888435
782,5.819033146,-0.548731148,8.783652306,-5.20072031,20.32700157,10.59130096
783,6.626602173,-0.169966355,8.203803062,-11.33309078,7.617345333,8.151140213
784,8.302620888,1.062185168,8.554175377,-13.9110527,8.540070534,3.455444813
785,10.68002987,1.39761126,11.03202534,-9.482831001,15.85952377,-4.648774624
786,13.52727604,1.72843492,10.77202797,-2.925027132,21.08919716,-10.26309204
787,14.5677042,1.27184093,8.994400978,-9.729187012,13.41162395,-4.488950729
788,13.66210842,-0.625376821,7.39003849,-15.39055729,7.115758896,-4.788593292
789,11.64062405,-0.477668434,6.399405003,-12.96512127,23.43268394,-9.021407127
790,10.92970657,0.321865052,4.906991959,-31.07014465,55.72558212,-9.610691071
791,9.821724892,0.514732599,3.100630999,-28.00285912,59.83983994,-4.742712021
792,9.159606934,0.051808793,2.176172733,-1.210577965,38.56959534,2.645620346
793,7.108737946,-0.121952593,2.874680758,8.871982574,30.24831581,6.138624191
794,3.716362953,-1.558984041,2.494046688,-7.355113029,3.436143637,8.114484787
795,-0.022354834,-2.362735271,7.061885357,56.80331039,18.46580505,4.906910419
796,-4.997306347,-2.08197093,8.778942108,-13.85363388,26.81907272,5.01527071
797,-2.359654903,0.40011096,9.008660316,-21.11292076,28.10614586,1.914256334
798,3.656207085,-0.24263157,10.3908062,-41.88217163,26.11595345,5.438923836
799,7.195077896,-1.301978946,10.42709732,-37.95509338,26.8099823,10.10638428
800,7.255610943,-2.290264845,10.45366096,-17.53107071,25.66339493,5.799753666
801,5.074808598,-1.382646203,10.32727432,0.329565614,22.76457596,-0.063122608
802,2.561659575,-0.722482145,10.11790848,-0.70994699,23.03110504,-2.325317383
803,0.519314945,-0.537325561,10.0976305,2.686321735,20.04388618,-3.535646915
804,0.948625743,-0.684156954,9.426861763,0.086116351,12.91382217,-0.430600971
805,2.572482824,-1.081551075,8.897339821,-4.051597118,5.70618391,1.291219592
806,3.138693571,-1.240587234,8.793167114,-11.81442642,-1.671562552,3.254780293
807,2.63330245,-1.232572198,8.456165314,-16.2952919,-5.900250435,4.861238003
808,1.937271714,-1.291994095,8.036135674,-9.737301826,-9.954957962,-0.09845528
809,2.228538752,-0.771509647,8.211898804,-10.00812817,-18.65557671,-3.304043531
810,2.726217985,-0.423429072,8.477332115,-16.52180481,-24.46287918,-2.732653141
811,2.72376132,-0.324664503,8.716525078,-19.80286026,-30.36180687,1.87827158
812,2.920273542,-0.949065506,9.306393623,-22.85126305,-33.80895615,8.214561462
813,3.505553722,-1.360081673,9.964325905,-15.93157005,-27.6622467,10.08859348
814,4.004238129,-1.861549616,10.60315895,-7.691644192,-16.49126053,6.278968334
815,4.13996315,-2.188107252,10.85445499,-0.528633475,-8.294010162,-3.575815678
816,4.113904953,-2.025466681,10.67035007,9.403279305,-1.881830215,-10.36172676
817,4.164476395,-1.653454304,10.63199043,16.41997337,3.820555687,-10.17419815
818,4.115773201,-1.36144042,10.67056561,17.00463486,8.423601151,-8.059867859
819,3.959769011,-1.203431368,10.70561123,17.34104729,9.174837112,-7.675806046
820,3.68503356,-1.105797887,10.24790668,16.19278717,9.052315712,-7.395984173
821,3.670503378,-1.108748913,9.85842514,15.55602551,9.336858749,-5.746395111
822,3.37920332,-1.18425715,9.50321579,14.56773186,7.778617382,-4.634007931
823,3.557052851,-1.092781544,9.431669235,13.63807392,6.34346962,-2.332012415
824,3.74405694,-1.035762191,9.804773331,7.52862978,2.723046303,0.882517755
825,3.72253418,-0.828055382,9.644558907,5.860500336,2.234676361,1.175821543
826,3.563385725,-0.644331157,9.528692245,5.624786854,-2.794371605,1.361539364
827,3.04436183,-0.53584671,9.252285004,3.606082916,-4.487781525,1.654164553
828,3.301753283,-0.684069335,8.902292252,6.21190834,-9.553323746,-0.436888814
829,3.498302698,-0.774051607,8.948455811,4.934733391,-15.53103065,0.698977649
830,3.318188429,-1.009063005,9.124640465,4.558766365,-20.83528328,-0.688047767
831,3.643043518,-1.158874035,9.276288986,5.951567173,-25.85577583,-4.494476318
832,4.18423605,-1.346505404,9.677370071,6.469015121,-38.34233093,-5.464819431
833,4.643092632,-1.384123325,9.664480209,4.488953114,-49.46943665,-6.327724457
834,4.566487789,-1.622383952,9.099021912,9.285825729,-50.65032959,-6.826336384
835,4.849825382,-0.885681391,8.486183167,23.07228279,-49.15945435,-8.005498886
836,5.11183691,0.459433228,8.627830505,26.57063484,-51.52681732,-5.79186964
837,5.163908005,0.613070667,9.285683632,8.445187569,-57.02072525,-1.871413827
838,5.425359726,-0.266980946,8.796150208,-8.755087852,-64.14069366,-2.86592412
839,6.094032288,-1.260091186,8.173708916,-10.72588253,-65.46344757,-5.111004353
840,6.588559628,-1.461751938,7.650587559,-6.247362614,-59.58108521,-7.170264244
841,6.507680893,-1.445642591,7.182596207,-3.275469065,-48.33442688,-6.270720005
842,6.311937332,-0.722929537,6.512956142,11.32793427,-40.52810287,-7.863110065
843,6.247806072,-0.583208144,6.261862755,5.233659267,-40.60274124,-3.643031359
844,6.04557991,0.026989965,7.052201271,1.863052368,-23.51974106,-3.360943794
845,5.690640926,0.55050689,8.146326065,9.662304878,-14.9925642,2.078645706
846,5.41924572,0.194257632,7.721417427,27.65028763,-21.77481461,10.09389114
847,5.242778301,-0.504133344,7.390126705,-2.506838799,-27.80264282,13.78008366
848,5.062939644,-0.489153832,7.914027214,-7.375263214,-35.18863678,10.32528973
849,4.681925774,-0.81126976,7.260430336,0.537120998,-41.39689255,10.46453857
850,3.361413002,-1.5097121,7.121873379,12.74358559,-48.206604,12.9316988
851,2.815694094,-2.034657717,6.940144062,18.60660553,-61.7118988,9.17540741
852,2.655472755,-1.040575743,6.816697121,16.29590988,-74.52591705,4.943026066
853,2.018062115,-0.124243885,7.071504116,14.25829601,-82.78827667,2.663306713
854,2.399438858,0.667883515,7.410246849,11.53660679,-82.46327209,-0.715828359
855,3.199967623,1.126091361,7.705402851,8.701807976,-76.14961243,-0.442263663
856,3.813172579,0.737560749,7.620994091,2.439510107,-63.88968658,1.504300356
857,4.301896095,-0.053929083,7.125346661,-3.01135087,-50.31160736,6.091990948
858,4.42633009,-0.941397548,6.892446041,-4.818143368,-35.41898727,10.78187847
859,4.405246735,-1.51375246,6.707049847,-1.043949127,-12.86394215,13.01001835
860,4.325411797,-1.412510633,6.45529604,2.046898127,11.66293907,10.26938915
861,4.048567772,-1.530237794,6.23974514,-5.316881657,29.79828262,5.824853897
862,3.868342161,-2.065339565,6.66930294,-7.005726814,39.1072464,2.19430995
863,4.030040741,-1.772162199,6.907179356,0.046135269,49.38292313,3.396651268
864,3.855953455,-0.88857621,7.231917381,2.691048384,56.2698555,9.282912254
865,3.442960501,-0.669952214,7.034894943,-0.652558208,67.36044312,11.56142235
866,3.53823185,-0.943795621,7.05959177,-8.883115768,75.09835052,11.63085842
867,4.142707348,-1.237870932,7.450995922,-18.10571289,76.48201752,11.25180054
868,4.603525162,-1.017427087,7.586587906,-21.45491028,78.73997498,9.627907753
869,4.826201916,-0.940658987,7.804300308,-18.97280502,83.18248749,9.845245361
870,4.311244011,-1.409719944,8.327934265,-12.59346581,77.10783386,10.99257946
871,4.381415844,-1.861979961,9.46081543,-14.51265335,68.11560822,11.86810303
872,5.309010506,-1.81409514,9.150565147,-4.942156792,57.05138779,8.618218422
873,5.311443806,-0.98408401,9.148975372,5.878427029,40.48806,11.31599903
874,5.673995972,0.245476604,8.86827755,17.22080421,17.82897949,14.60756016
875,6.356496334,1.476506829,9.293218613,32.4721756,0.306053966,17.11693954
876,7.699295044,2.051811457,10.20368099,24.97599411,-7.765026093,26.73435211
877,9.598127365,0.16043219,9.801990509,-17.52889633,-6.974699497,36.4485054
878,12.46204185,-3.37758112,8.873659134,-20.94997215,-21.43071175,29.34317207
879,16.04026794,-5.427783012,8.319973946,7.895059109,-26.33207321,15.34521675
880,15.93157959,-3.906022549,7.234294891,26.21843529,3.037628889,0.841488123
881,13.84319401,-0.787437975,7.26862669,28.71934319,43.43775177,-15.10119629
882,14.02483273,0.335952282,6.536263466,9.539926529,60.32232666,-19.68055725
883,11.98578072,0.372392386,4.991746902,3.114935875,69.33095551,-9.866809845
884,10.46732521,-0.219267458,3.430681705,-4.267310143,102.1993408,-3.328710556
885,9.442978859,-0.529631317,2.559763193,-15.09850597,118.0847549,-1.555767536
886,7.689430237,-0.537182987,3.242774487,-60.14822388,112.7674637,5.292766094
887,3.344727278,-0.59558332,1.984901905,-67.90123749,60.55410767,2.440942287
888,0.690437555,-1.040228605,5.926994801,-15.74111176,31.71907425,6.464156628
889,-2.686291933,-1.44374609,6.474653244,-28.19566536,46.3986969,12.70627308
890,-1.21712935,-2.797718525,7.236951828,-5.220338821,43.14028168,5.076080322
891,1.829407811,-1.708356023,7.60860157,-8.800300598,29.3451252,10.77126217
892,3.432834148,-0.592425227,9.063988686,12.37505054,35.27352142,8.684882164
893,4.743788719,-0.461907357,9.068959236,1.574796796,31.38870239,12.57066917
894,4.126536369,-2.010270596,10.88366222,3.836192131,34.55216217,11.41379642
895,3.476375818,-3.091496468,11.26137733,6.98027277,29.59064102,10.27005577
896,1.348078728,-3.557175636,11.07198334,4.637695789,21.78775787,14.31505585
897,0.68479073,-3.80594039,10.2582283,8.025997162,10.1977005,12.23181248
898,1.417817116,-2.982434034,9.380652428,17.06781387,-1.119544983,4.205872059
899,2.336070061,-1.629772544,9.146436691,20.34143066,-9.974524498,-0.057334129
900,2.248753309,-0.939006507,9.050501823,19.46063042,-15.57687187,2.213755369
901,2.137430191,-1.096310139,9.00100708,19.52412605,-20.58177376,7.716827869
902,2.363743782,-1.344505548,9.060222626,19.1365757,-23.27204895,7.040603638
903,2.819054604,-1.892011762,9.040840149,21.70738411,-23.53509331,-0.214494318
904,2.81248188,-1.967713714,8.843014717,27.52656937,-25.3618679,-8.543557167
905,2.63735199,-1.343809247,8.753477097,33.39306641,-28.18943787,-16.27252579
906,3.002103806,-0.348393768,9.37074852,40.77545929,-23.7436161,-19.82684708
907,3.316428661,0.175418749,10.00061703,44.7793045,-14.05042839,-15.26563168
908,3.135020018,0.182955518,10.03756618,42.96320724,-6.793917179,-7.589760303
909,2.919590473,-0.189110264,9.811248779,35.86729813,-5.504015923,-4.334239483
910,3.109481096,-0.225181848,9.472078323,30.53889275,-8.447751999,-1.450811148
911,3.446846962,-0.021662422,9.163319588,18.00756073,-13.5324297,1.267350554
912,3.439836025,-0.45951128,9.169503212,14.37042809,-13.88680363,3.579002142
913,3.787971973,-0.929506719,9.733445168,18.417202,-9.361276627,1.172928929
914,3.604468346,-0.431177974,10.04309177,14.78909588,-3.100022554,-1.955364704
915,3.361533403,-0.037964165,10.13238525,4.09546566,-9.483118057,-2.262421608
916,3.848858833,-0.270932019,9.858174324,-2.044868469,-16.20018768,-0.937681794
917,4.285506248,-0.427903563,9.576512337,-0.633326411,-23.35198593,0.957270026
918,4.30964756,-0.490329772,9.368206024,3.272254229,-26.0427475,2.452914953
919,3.95053339,-0.547171354,9.452292442,8.735308647,-28.18633842,1.901960135
920,4.072518826,-0.010503666,9.291392326,12.94259167,-31.92446518,1.341438651
921,4.555036068,0.53263998,9.563789368,8.874175072,-38.14506912,1.052463412
922,5.108259201,0.539960504,9.432632446,0.037093844,-43.6157341,1.098145485
923,5.189473629,0.229509473,9.072237015,-6.960262775,-50.27719116,3.697373867
924,5.500176907,-0.038372178,8.864210129,-5.296604156,-52.070755,5.776814938
925,5.477642059,-0.415354133,8.853086472,-2.082849979,-58.85809708,4.856783867
926,5.256314754,-1.198316932,9.286867142,-4.919584274,-71.57241058,2.122581959
927,5.873796463,-1.445819974,9.154004097,0.541920364,-83.26760864,-0.163541064
928,6.856419563,-1.374540925,8.664570808,16.86388206,-82.71130371,0.221062347
929,7.017786503,-0.960608542,8.30112648,28.87563324,-71.78586578,3.694614172
930,6.153000355,-0.354773074,8.607825279,24.6139679,-74.25080109,4.950510025
931,5.799931049,0.272191405,8.001378059,15.46551418,-80.64598083,0.168964595
932,6.211195469,-0.228401333,7.398226261,41.58708191,-68.01065826,-2.224960804
933,6.760860443,-0.518038869,7.657384396,37.26498413,-62.24066544,-4.058804989
934,5.950421333,-0.590272307,7.285718441,29.3212204,-51.51149368,-6.136327267
935,5.742807865,0.701719463,6.855864525,27.63037682,-40.44032288,-3.888284206
936,5.568125248,0.687685192,7.250782013,34.75004578,-47.13336945,4.245246887
937,5.157453537,-0.163427591,7.227006435,38.97110748,-59.85624695,7.411598682
938,4.416523933,-1.077308893,7.32022953,43.31695557,-73.33444214,9.14944458
939,3.642632723,-0.969795048,7.412575722,40.08629608,-76.68351746,10.19399261
940,3.291853666,0.191322684,7.135196686,31.49972725,-67.57202911,5.322942257
941,3.278057098,1.092404485,6.876628876,22.33750343,-56.47543716,-2.767962217
942,3.241596937,1.907280326,6.781980515,8.357795715,-48.1213913,-7.580848217
943,3.757657528,1.892405987,6.409236431,-5.226241589,-41.93574905,-8.12790966
944,4.077096939,0.788098991,5.615492821,-12.54272938,-30.88573265,-2.809736967
945,3.916936398,-0.333474666,5.631421566,-20.65940285,-17.99088478,5.04814291
946,3.449408531,-0.758760512,5.757858753,-22.66537476,0.285614192,4.206900597
947,4.043577671,-1.084682584,6.194046974,-18.91139793,17.51814651,-1.341596246
948,4.433637142,-1.244598269,6.124222279,-10.32244205,30.44819832,-2.500948191
949,4.22603178,-1.146220684,6.448421001,-8.113627434,40.57477188,-3.32342124
950,3.999994278,-0.567433059,6.468786716,-4.999789238,53.01493454,-4.348439693
951,3.798526764,-0.219731778,6.873514175,-5.196754456,65.27597809,-1.779264331
952,3.984602213,-0.612392604,7.157350063,-2.080790997,74.68387604,2.080886841
953,4.316818714,-0.822116137,7.235846043,-5.933879375,79.8399353,0.126817733
954,4.92335701,0.074690863,7.598787785,-5.621211529,77.58158112,-2.627919436
955,5.142383099,0.60960865,7.485895157,-4.710951805,76.43890381,-3.856494665
956,4.592829704,0.545881748,7.843435287,-9.700604439,76.75246429,-1.211173177
957,4.697520256,0.474024624,8.817367554,-13.71141243,71.51475525,0.438580841
958,5.773863316,0.597635508,8.280423164,-16.72745514,68.03588104,-1.816189408
959,6.556353569,0.647194743,8.519910812,-9.137214661,55.69028473,-1.32259047
960,6.337772369,0.909579217,8.374990463,-0.17734316,36.87008286,3.567462206
961,6.264463425,2.384589911,7.844751358,15.07955837,20.53201675,7.305496216
962,7.829779625,2.842619419,8.190348625,12.95818901,17.39336967,10.16314602
963,10.49345779,1.347842097,9.863116264,-0.33278653,23.81036758,7.91014719
964,13.79236698,-0.759563625,10.97635746,5.924298763,32.67438889,7.664881706
965,16.42737007,-2.353944302,10.44622517,16.73483276,34.97903824,7.898172855
966,16.50955772,-1.984305382,8.0860672,26.35140038,21.86553192,-7.461382389
967,14.56450272,0.28096804,5.477585793,11.4931097,-3.104840755,-18.39507294
968,12.03487396,4.007661819,4.681493759,-8.894705772,-3.089606285,-28.91236115
969,10.53258038,4.384462833,3.896393299,-52.67554092,33.70291901,-30.1253624
970,10.41455269,2.420042753,2.209146976,-59.53395081,57.59680176,-16.87459946
971,9.98133564,0.449237943,2.04934001,-54.55761719,51.604496,2.800708532
972,4.390701771,-1.549439192,2.733377695,-77.15618134,38.58387756,19.29332924
973,0.364284605,-0.557611048,4.129081249,-21.72331047,5.195017338,13.45672131
974,-2.479579449,-3.318553925,8.095674515,-24.25378227,18.70976448,17.03279495
975,-0.410648912,-3.541395664,8.185220718,-24.00891685,23.79206085,17.55661583
976,3.826401234,-3.246521235,8.922907829,-8.490408897,26.22342873,14.94815445
977,7.457841873,-1.154432535,10.55121613,22.34346962,34.86882019,6.172358513
978,8.757472038,1.37036097,11.65418148,19.46767426,40.99108505,8.495956421
979,6.258264065,1.101665735,10.97687054,1.374457479,42.18167496,13.28180695
980,4.132353783,-1.13729167,9.782597542,8.102103233,43.04639816,11.46992874
981,2.302727938,-3.041979551,9.466794968,31.06401062,46.56516647,6.361886978
982,1.316449285,-2.821706533,9.451123238,51.17023849,46.32104111,1.03316319
983,1.760581493,-1.207720995,8.767910004,57.04696274,35.01622009,-2.856078863
984,2.201463461,0.353271991,8.260486603,55.30141449,22.78576088,-5.07647562
985,2.849517584,1.490124226,8.092123032,47.51995087,14.63399982,-1.620516777
986,3.332802296,1.423899889,8.078191757,31.17103004,9.759697914,0.282630771
987,3.543336868,1.177522898,8.447449684,23.35242462,6.191774845,6.954100609
988,3.190034389,0.993226469,8.835931778,15.66251659,5.290881634,13.94536209
989,2.999130726,0.489920467,9.033629417,3.822629452,8.463912964,15.56859016
990,3.099421263,-0.595831156,9.036655426,-3.307320595,9.874239922,14.92113876
991,3.097337246,-1.352006316,8.992765427,-3.410319805,7.617265224,10.96626949
992,2.716516018,-1.300339341,8.957855225,-0.993337154,1.871538877,5.706323147
993,2.799152136,-0.77742672,9.099160194,3.423771143,-4.173845291,1.974963069
994,2.770364285,-0.496178746,9.562679291,5.454553127,-10.15514469,-0.66030848
995,3.204698801,-0.360286564,9.937664986,7.723662376,-13.25347996,-2.425089121
996,3.414340258,-0.232037663,9.947349548,7.659274101,-15.32960033,-2.634038448
997,3.809420109,-0.450978696,9.699904442,6.143282413,-16.19098091,-3.356918812
998,3.915840864,-0.535245538,9.48020649,8.410614967,-18.47239304,-4.612226486
999,4.076553345,0.095581204,8.961756706,12.21433449,-21.43241119,-8.041240692
1000,3.349459171,1.090061069,8.804017067,8.661405563,-21.06547546,-5.788455486
1001,3.559849739,0.941742301,8.478569031,2.658825159,-17.35150909,-3.464069843
1002,3.605817556,0.444075704,8.741957664,4.21551609,-17.93998909,-3.615031719
1003,4.233065605,0.490608692,8.839184761,7.380777836,-18.90223694,-1.267074823
1004,4.705474854,0.016011501,9.290962219,10.94731712,-20.11634064,1.497506857
1005,4.894392014,-0.182756096,9.621422768,12.74878597,-23.1178112,0.241496339
1006,4.666077614,0.111284234,9.540299416,6.468322754,-29.35425758,-3.940744638
1007,4.664847374,-0.04324108,9.502285957,2.162380457,-33.23065567,-6.346021175
1008,4.999086857,-0.20220609,9.267012596,6.489851475,-37.91307068,-7.913369179
1009,5.400604248,0.240175262,9.008913994,10.91202164,-40.5715065,-7.247710228
1010,5.384880066,0.538517654,8.512675285,8.432527542,-40.59384918,-4.654932499
1011,5.496936321,0.732572973,8.252018929,5.716116428,-40.52436829,-6.044095039
1012,5.653253555,0.736983478,8.307950974,1.103344798,-42.82432175,-7.2770648
1013,5.984286308,0.451222956,8.072376251,-2.505491257,-45.40198135,-5.562158585
1014,5.996891022,-0.112582922,8.078025818,-7.781608105,-45.91142273,-5.067575455
1015,6.21739006,0.087074555,8.106581688,-5.774979115,-46.5589447,-5.728260994
1016,6.091847897,0.29219985,8.22957325,-3.181375027,-43.66440201,-4.492651463
1017,5.631839752,0.413806736,8.132175446,7.279345989,-56.00904846,-5.350003242
1018,5.529892445,0.485908568,8.454965591,9.059505463,-70.15480042,-4.777544022
1019,5.872319221,0.509572268,8.223903656,24.35173416,-80.4535675,-3.875221014
1020,6.322158813,0.73005873,8.196723938,47.38298035,-56.29985809,0.254255742
1021,6.031180382,0.451560736,7.562838078,19.000103,-29.67857933,6.562547207
1022,5.646781445,0.876745403,7.170685291,-13.37628746,-20.32907486,7.913566589
1023,5.684610367,0.451273113,7.100231647,-24.55060387,-25.83804321,5.977525711
1024,4.983470917,0.116247848,7.691637516,-29.24470139,-30.17209053,4.088869095
1025,4.445867538,-0.583091319,7.591640472,-30.76394081,-34.72525787,3.657527447
1026,3.968594074,-0.965178967,7.610017776,-32.06505585,-38.89848328,3.544950962
1027,3.264011383,-0.413116664,7.408914566,-34.99155807,-35.90903091,-1.809002757
1028,2.545608759,0.041351236,7.170939922,-31.34306145,-30.86476898,-5.927638054
1029,2.177063227,0.262615025,7.215269566,-26.09484482,-28.0918808,-8.469666481
1030,2.503041029,0.895189226,7.227036953,-21.59775734,-29.04714584,-9.734717369
1031,2.938126564,0.953286946,7.310349941,-17.35969353,-25.76922035,-7.168506622
1032,3.184098482,0.251159072,6.624381542,-17.81529427,-14.89843559,-2.939869642
1033,3.452450514,-0.328733623,6.086651802,-9.140151978,-2.569889545,-2.062130451
1034,3.369669914,-0.175343469,5.928448677,5.724214077,5.819250584,-3.155510187
1035,3.219397545,-0.222316206,6.012520313,21.95417786,14.21625423,-3.797284365
1036,3.672338963,-0.230985045,5.89729023,18.72105217,21.3814373,-7.403449535
1037,4.432759285,0.198870406,5.93730545,10.90271282,17.68650436,-9.450655937
1038,3.79965806,-0.761337817,6.365721703,9.96052742,14.89756012,0.821637094
1039,4.398740292,-1.466979265,6.358831882,5.518906593,12.3493309,1.378982186
1040,4.68130064,-1.767451048,6.681822777,5.809994221,9.161263466,-4.78847599
1041,4.789561749,-0.571233749,6.835399628,0.62402153,4.538936138,-6.74195528
1042,4.823410988,-0.133556038,6.637990952,-4.78258276,-1.145771503,-3.152680159
1043,4.598574638,-0.944361687,6.872709274,-18.06433678,-3.957960129,0.855855763
1044,4.88214159,-0.597870648,7.49467659,-25.00966835,1.980256915,7.550354004
1045,5.878738403,-1.448665261,8.021133423,-24.34549522,7.94453907,15.06934738
1046,5.856294155,-1.746073723,8.103873253,-20.41106796,12.37216568,21.81400299
1047,5.969528675,-1.904595017,8.681347847,-16.91040993,21.50709915,26.20337677
1048,6.139381886,-1.233017445,8.506475449,-21.92345238,31.08741188,22.06599617
1049,6.292638779,-0.437246978,8.484642029,-14.59909058,28.60354996,19.04745674
1050,6.341427326,0.611884415,9.156632423,-3.482867718,22.89846802,24.68497658
1051,6.636037827,2.400303841,10.27011395,1.438497305,11.74267483,28.26062775
1052,8.337618828,3.941090822,10.98817539,-9.18887043,-12.31337452,28.03070831
1053,8.390151024,2.507554293,11.41276836,-11.37760353,-48.61079788,30.30906105
1054,7.614038467,-0.473770291,11.3632946,-1.106352806,-71.5221405,36.51973343
1055,9.090996742,-2.800846577,10.56159782,0.169182867,-83.38924408,27.15540314
1056,8.108375549,-2.531454086,9.776008606,1.111679673,-87.07788849,18.05149269
1057,8.085421562,-1.304925561,9.397830009,1.194118619,-72.68518066,10.64917469
1058,10.01537418,-0.947491944,8.941002846,-3.434987307,-58.73899078,2.467410803
1059,12.23195076,-1.934924006,7.852360725,-8.427284241,-45.90647888,-4.902244568
1060,12.9529295,-2.185640574,6.768942356,-5.228499413,-34.18664932,-13.03559494
1061,12.23257256,-0.973627269,5.90952301,0.218573019,-18.12030792,-21.99504662
1062,13.64301682,-0.102930516,6.117485046,-16.5500164,-20.6833477,-24.5004673
1063,17.69037437,-0.561142266,5.125837326,-30.82229805,1.584329724,-32.92842102
1064,17.27469826,-1.587106824,3.762934685,-40.48360062,52.34201431,-27.68589211
1065,16.1313839,-2.745874882,2.11947608,-39.99040222,107.2709427,-23.38076591
1066,15.88022614,-2.836545944,2.886650562,-26.06663132,185.3282928,-22.68702507
1067,15.65394211,-2.169556379,3.372470856,-14.66485214,274.499176,-29.37693405
1068,14.26958466,-1.068056583,1.010118008,-36.73801804,314.1465149,-35.35125732
1069,11.67550755,-1.218133926,-2.953692675,-25.18663025,314.2267761,-37.34303665
1070,7.550806522,-3.074694872,-2.566754818,1.238661766,293.2957458,-43.02313232
1071,4.74594593,-3.556767702,-0.178667873,-9.232902527,275.8078613,-23.34430885
1072,1.002329946,-2.886082411,0.230085731,-3.121769667,281.4598999,-17.12147141
1073,-1.809394598,-1.927220225,0.131605819,-7.254924774,280.5055847,-18.88461876
1074,-4.343123436,-0.953922808,0.994344711,-13.77082253,244.3571014,-0.577585876
1075,-4.401562691,-1.727778196,3.590794086,-18.65519905,227.872879,7.509407997
1076,-3.532222271,-0.304677337,7.402760506,13.32362366,219.542984,-4.411515713
1077,-4.544844151,0.177230433,8.661822319,-8.265028,207.8773651,-17.44414711
1078,-6.459721088,-0.916629374,7.555895329,-33.62514114,174.3344269,-14.9844265
1079,-4.254876614,-0.738522589,5.922390938,-30.12080956,135.0297394,-3.285690546
1080,-2.739910603,-0.917304635,5.324228287,-26.14348793,109.6230316,1.751378655
1081,-2.803406954,-2.299875498,5.211210728,-28.03417969,94.82310486,-2.334742069
1082,-4.17339325,-2.586818695,6.164201736,-26.70347786,83.68668365,-5.362177849
1083,-5.223148346,-1.797356486,6.679124355,-24.10610199,75.79438782,-8.943632126
1084,-5.302251816,-1.541102529,6.82144928,-30.19783401,72.3248291,-3.211786747
1085,-4.668245792,-2.909349442,5.650125027,-31.56469536,58.25066757,1.109335184
1086,-3.958479643,-3.003842115,6.710670471,0.448218673,42.03673935,-0.310888857
1087,-4.859323978,-1.824887991,5.664549351,27.96552467,39.14210129,2.171340704
1088,-5.208545685,-0.755792379,7.102341652,42.52571487,40.39541245,4.310624599
1089,-5.323437214,-1.314776778,8.298625946,39.46944427,38.439888,2.008549929
1090,-4.524271488,-1.65795064,8.114744186,51.5927887,34.36835861,-0.528576374
1091,-4.049901962,-2.059528112,7.980212688,46.66839981,25.31919289,-4.627248764
1092,-5.007468224,-1.534799218,8.407466888,42.00857925,15.2931776,-6.461707592
1093,-5.709665775,-0.725245237,8.165430069,36.53334045,5.176998138,-3.692766905
1094,-4.716311932,-0.998950601,8.655492783,32.69388962,-7.657204151,2.19837904
1095,-3.633699179,-1.577807307,7.786655426,28.51834679,-20.29496384,3.819145679
1096,-3.752305508,-1.53728497,7.868955135,26.73852921,-33.4775238,2.957690001
1097,-4.506259918,-0.905480623,7.891683102,30.27178383,-44.22292328,0.501495361
1098,-4.593750954,-0.685513377,8.243151665,29.93632317,-49.08724594,-3.211114168
1099,-3.675064087,0.264205277,8.779472351,23.9882431,-53.77872849,-5.095772743
1100,-3.069979906,0.31399557,8.50475502,29.44472122,-57.47409058,-3.910937309
1101,-2.918633461,0.1347882,8.890927315,29.09279823,-64.49812317,-2.237987757
1102,-2.927484274,-0.407212317,9.341907501,21.67687225,-68.30055237,-2.199568748
1103,-3.100486994,-0.759716094,9.164546013,9.916356087,-70.16265106,-2.955296516
1104,-2.672817707,-0.169308051,9.884817123,-1.60682869,-71.45386505,-3.12234664
1105,-1.956341743,0.101981446,9.563533783,-13.64451408,-73.70559692,-2.857383728
1106,-1.72087431,0.383279264,9.952479362,-20.59725952,-77.24860382,-5.811685562
1107,-2.160376787,0.217155263,9.91036129,-21.05620003,-81.01724243,-7.353563786
1108,-1.963893294,0.284938902,9.713749886,-23.65681267,-78.0524826,-10.83667183
1109,-1.396670222,-0.074848719,9.739261627,-9.269628525,-71.69234467,-13.23470592
1110,-0.684575796,-0.92845571,9.967104912,-24.18697548,-73.36378479,-16.94778252
1111,-0.694081247,-1.126138449,10.2766428,-23.16187477,-69.84416199,-17.41195297
1112,-0.720689297,-1.372202396,10.5772171,-23.1385231,-64.45318604,-16.63860893
1113,-0.166109785,-1.12560904,10.99548817,-37.98418427,-61.54663849,-15.37105274
1114,-0.081647508,-0.390170217,10.75018597,-39.15579605,-62.62966537,-16.29327202
1115,-0.235252559,-0.524331927,10.25733471,-34.98822403,-67.4786911,-15.77546597
1116,0.200729832,-1.15950644,10.0996685,-25.21230316,-65.43462372,-13.85427475
1117,0.675472081,-1.760178566,10.23444176,-19.27158165,-66.90757751,-13.67006016
1118,0.735139847,-2.371836185,10.3872261,-21.38630676,-67.05665588,-15.11203957
1119,0.910939217,-2.239298344,10.5208168,-22.18425751,-69.2286911,-16.42529488
1120,1.565229058,-1.950149655,10.91986942,-23.20100784,-74.35787201,-17.9103775
1121,1.291499615,-1.040608644,11.49576187,-34.7834053,-86.66549683,-19.41300201
1122,-2.306106091,-0.805742979,10.16785526,-46.31164932,-77.45149994,-33.71612549
1123,1.943347931,-4.158871174,5.902400494,42.61647415,-37.51108551,0.789718926
1124,-5.915139198,8.778914452,6.719659805,103.8534088,-114.1552353,-75.43312836
1125,3.969825029,-8.19356823,14.405797,41.28126526,-9.309855461,-71.91314697
1126,9.976798058,-4.131573677,9.144163132,50.30711365,-40.12634277,-43.05162048
1127,4.841619968,0.319000512,9.468288422,40.34444046,-68.67639923,4.740625381
1128,0.737031996,8.766601563,9.349187851,43.53477478,-63.43766403,25.03364182
1129,0.981522441,2.114094496,11.12864017,14.91981411,-58.50266266,59.05411148
1130,2.031172514,-1.076506138,11.06781578,9.897976875,-60.97561264,47.86986923
1131,-0.098588102,-2.712823868,11.06382751,16.02531052,-64.37018585,21.42284393
1132,2.228920221,-3.172997475,11.34852219,23.04026222,-56.95309067,9.292675972
1133,3.858309507,-3.43800807,11.46328449,45.04367828,-68.39391327,-5.998213768
1134,3.706883669,-2.043683529,11.3263073,64.19930267,-87.63690948,-20.78519058
1135,3.055681944,-0.132995844,11.29081631,67.14868927,-93.91676331,-27.86712074
1136,3.831146002,0.474550784,11.18893814,54.52410126,-90.2097702,-34.13800812
1137,5.045009136,0.978779435,11.79312515,47.32131577,-92.84702301,-28.45435715
1138,5.530234337,1.603718162,12.10875797,22.85951614,-102.3406677,-18.87768745
1139,5.599314213,0.991769195,11.17410851,11.39084148,-111.6454315,-11.84929848
1140,5.570662022,-0.610887647,10.42881203,-1.250338078,-110.1740952,-13.3267374
1141,5.97450161,-1.463839293,9.939253807,-0.675164282,-103.3330383,-18.81639862
1142,6.500889301,-0.966894388,10.09157467,5.408201694,-101.105835,-19.45194435
1143,6.041349888,-0.216016084,10.1924839,0.169094697,-100.0688171,-13.41605473
1144,6.089677811,0.025162667,9.767476082,-6.727164745,-98.44631195,-8.71066761
1145,6.202047348,0.496493787,8.841705322,-16.46714211,-94.21744537,-4.919756889
1146,6.10319376,0.447981149,7.730191231,-33.55136871,-75.78804779,0.325615734
1147,6.736065865,-0.600647807,6.563337326,-51.27111435,-37.74687195,5.119750977
1148,7.021187782,-2.198912382,6.674228668,-67.18983459,5.957448959,0.799135447
1149,7.629852772,-2.039981365,8.452008247,-59.08830261,30.64452934,-5.639568806
1150,8.842978477,-1.869480729,9.527581215,-38.07149124,39.3156662,-13.14111042
1151,10.11245823,-0.549272537,7.885033607,-54.63622665,48.81319046,-22.01107407
1152,10.28940773,-0.575572491,5.258313179,-60.8633728,45.41848373,-18.10312462
1153,10.36191463,0.013276858,3.285127401,-19.03810501,56.49484634,-5.197586536
1154,9.541126251,-0.218848214,3.617751122,14.38787365,59.80832672,2.735722303
1155,9.022957802,0.197490275,4.313475609,13.18268681,59.29383087,0.674922585
1156,9.781578064,1.311075211,4.019958973,0.379332334,37.30258942,-0.607715487
1157,8.783387184,1.130259395,4.659160614,-5.584992886,-8.241492271,4.024608612
1158,5.723135471,0.445299089,6.41883707,9.553469658,-42.62690735,8.2882061
1159,3.245280266,0.054155849,8.81265831,24.37086105,-51.02812958,14.95632648
1160,1.831335664,-0.239079088,10.07491398,15.64355659,-41.24324417,21.55925751
1161,1.623829603,-0.092362307,8.771823883,-2.984915257,-40.86350632,24.88983345
1162,2.570659161,-0.136234656,6.947076321,-30.02849007,-41.42883301,24.31877327
1163,4.633752823,-0.793792903,6.664220333,-52.5014534,-17.50059319,21.10996056
1164,6.597131252,-1.743982315,8.412527084,-66.34719849,7.191673756,17.08511543
1165,7.109875679,-1.884156942,9.620205879,-61.74342728,8.659156799,14.18866062
1166,6.475009918,-1.674152613,9.893309593,-51.86781693,-9.431498528,10.88076305
1167,5.651549339,-1.149170637,8.912817955,-44.0283699,-22.00668716,7.23004818
1168,5.001224995,-0.915987432,8.490628242,-35.21454239,-28.29072762,7.003209591
1169,5.482571125,-0.94948101,8.159733772,-28.04761696,-30.57099724,7.159709454
1170,5.88452816,-1.387349486,8.383383751,-25.48979378,-33.21395493,7.261227131
1171,6.556411266,-2.215442657,8.030847549,-16.97858238,-40.08426285,5.151319504
1172,6.879624367,-3.432396412,7.275990963,2.497442007,-45.39670944,1.962952375
1173,6.247216702,-3.48588872,7.123056412,22.4344101,-45.30943298,-0.867497087
1174,6.289772987,-1.900695562,7.363789082,21.98436546,-41.87490082,-3.181224823
1175,6.623251438,-0.711810648,6.812861443,17.65818977,-37.79681015,-0.189061299
1176,6.891702175,-0.321432799,6.842677593,12.45109272,-39.20977783,3.758129358
1177,7.416935921,-0.575809419,6.952645302,5.1797719,-41.4065094,5.470631599
1178,7.692994118,-1.363004208,7.043000221,3.287227392,-44.51596451,3.250780344
1179,7.892608643,-1.693570614,6.956564903,5.973866463,-45.63476944,0.596389711
1180,7.85714817,-1.337958217,6.80554533,11.3822422,-43.28046417,0.830875456
1181,7.766447544,-1.030191541,7.011429787,11.18967056,-42.72807312,1.64156127
1182,8.260793686,-1.039561391,6.691583633,6.400244236,-45.08753586,4.445187092
1183,8.539484024,-1.185075402,6.291632652,3.329872847,-43.58128738,7.16283989
1184,8.747152328,-1.45079124,5.608572483,1.641866207,-38.49755478,8.405767441
1185,8.743262291,-1.353869319,5.401299953,-0.117831744,-34.32160568,8.435201645
1186,8.811865807,-1.404304624,5.569867611,-7.328763008,-34.89644623,6.780910492
1187,8.687245369,-1.496436596,5.35662508,-14.52066612,-34.25624466,4.124644756
1188,8.370816231,-1.787667036,4.864591122,-20.84099388,-31.91786385,1.845231533
1189,8.607223511,-2.108592033,4.033938408,-24.62705994,-27.65080643,1.120746493
1190,8.470355988,-2.560543537,3.630631447,-17.13114166,-23.08735275,-0.799605191
1191,8.356724739,-2.783075809,3.94021368,-19.09877586,-19.73125648,-4.302151203
1192,8.630316734,-1.384525418,4.473592281,-18.70286942,-6.636823654,-7.396215439
1193,7.904462814,-0.962792516,4.30353117,-0.428436726,11.53190136,-8.229416847
1194,7.429783344,-1.060026407,3.992132187,51.00365448,23.9695015,-8.125311852
1195,6.686586857,-1.66481185,4.1074543,85.530159,19.13001442,-7.166167259
1196,6.618658543,-2.503601313,5.414052486,84.43408966,-3.321936846,-11.82650566
1197,6.606101036,-1.937737703,5.329030514,87.02571869,-18.8992157,-19.32930374
1198,5.953195572,-1.080139399,5.072340488,80.84622192,-22.21753883,-21.88752174
1199,5.594284058,-0.25222078,5.40519762,69.66274261,-23.30171013,-21.1605854
1200,5.567266941,-0.189103469,5.425036907,65.02836609,-30.35626984,-20.5652504
1201,5.060604572,0.051512446,5.707757473,60.38554764,-36.69137192,-19.95603943
1202,4.374091148,0.542877555,6.388077259,54.90800476,-43.10019684,-17.89656067
1203,3.718425035,0.259196043,6.356034756,47.81766891,-40.36276245,-16.12458038
1204,4.384390831,0.159211248,5.618305683,32.44667053,-28.23237228,-18.53518486
1205,5.503322601,0.496647477,5.07508564,19.35583687,-24.16264915,-15.55138111
1206,4.57856369,0.174190208,5.538067818,12.14021969,-18.92659187,-7.352766991
1207,4.838849068,-0.724878728,5.644441605,7.172961235,-8.212459564,-4.876199722
1208,5.584030628,-1.573271155,5.588121414,0.814733624,2.848983765,-3.501486301
1209,5.023553371,-1.784131169,5.402478218,-1.414564133,9.092926979,-1.267483115
1210,4.561788559,-1.454205632,5.715228081,-8.023371696,21.70977783,0.491617501
1211,4.799130917,-0.992928267,5.878198624,-5.697702885,28.06525421,3.380316257
1212,5.443447113,-1.047834396,5.294384956,-2.11497736,33.64712524,3.495898008
1213,5.662973404,-0.844143927,5.400033474,6.852571964,40.61772919,2.176753044
1214,4.47246027,0.018204914,5.396594048,4.64596653,53.86279297,2.091291666
1215,4.784470081,0.181897864,5.13764143,-2.973439693,67.79271698,-5.250125885
1216,4.4386096,-0.516870797,4.935944557,-7.106942177,69.41714478,-3.633467197
1217,5.039556026,-0.796254039,5.054916859,-10.987854,79.35617828,-1.127778292
1218,5.189796448,-0.780757427,5.586402893,-16.01792526,83.41946411,0.296276063
1219,5.612112999,-0.992676318,6.755747795,-17.31101036,83.95438385,0.323362321
1220,6.077635288,-1.261844039,6.78668499,-2.674654484,80.66890717,-3.533224821
1221,5.913942814,-1.441777706,7.31828022,12.75327682,83.66442108,-6.984221935
1222,6.430820942,-0.628966928,8.387691498,29.43559265,89.91518402,-4.153371334
1223,7.860909462,0.280917019,8.53463459,47.14228821,75.89853668,0.178634405
1224,8.245398521,1.164173007,7.647658348,56.98862839,47.55510712,3.850554228
1225,8.028098106,2.189366817,7.296843529,54.34280777,32.94363022,6.016926765
1226,8.643249512,2.892748833,6.830935955,36.4523735,32.26206589,8.853713989
1227,10.2171936,2.851870775,7.739831924,9.427502632,40.73693466,14.71051693
1228,12.07256794,-0.047530927,8.60560894,-20.07270241,62.00079727,11.53556824
1229,13.68039703,-1.742895603,8.450314522,4.617201805,59.94724655,1.820221543
1230,15.0036869,-0.551569939,7.994673252,33.68856049,26.87831497,4.164069653
1231,15.70042992,1.395558,7.330153942,37.4018631,8.947617531,-3.583043098
1232,14.65603447,2.214466572,6.12588644,30.1041584,14.10108376,-18.0740242
1233,12.73133755,2.136720181,5.499306679,20.28816795,15.62455273,-18.71988869
1234,11.88246536,2.265791416,5.35956049,5.234761238,12.30907345,-12.59174156
1235,10.73121834,1.585811377,4.092947483,-8.15097332,19.78425026,-6.823952198
1236,10.83127022,1.245722532,3.34458375,-14.0027132,30.05927277,-9.939741135
1237,8.391454697,0.811040044,3.133989811,-85.21691895,43.61524963,-1.992194653
1238,4.447960377,1.217011571,1.884741426,-58.34540176,19.19181442,-10.37632084
1239,0.832055926,-0.110931329,6.891397953,20.29560471,30.21256256,-14.17451382
1240,-0.287760198,-0.443346709,6.73995018,-6.802248955,40.63274002,4.949255466
1241,3.236136198,-2.45935297,6.968268871,-2.716526985,43.39207077,7.592404842
1242,7.149285316,-0.153006792,9.048066139,16.37328148,50.76395798,5.804697037
1243,9.027179718,2.790781498,9.260848999,16.49556541,54.2049675,2.5534935
1244,7.721087933,3.182066441,10.6299696,-7.085314274,62.25669861,5.129776478
1245,4.959821701,2.023458719,9.853960991,-22.3573513,71.94114685,3.36774683
1246,2.344984293,-0.026334282,9.979617119,-5.038729191,73.61112976,5.325885773
1247,1.218300223,-1.745387316,9.502513885,7.307092667,61.22304153,14.18296909
1248,1.844545364,-2.068815947,8.06882,34.01397705,37.43145752,6.156778336
1249,2.058130503,-0.758580208,7.814446926,45.93970108,17.86523628,-4.954934597
1250,3.037158489,0.902557969,8.000441551,39.73377609,4.223015308,-9.195436478
1251,3.54044199,1.618779302,7.81298399,21.44631004,-1.686714292,-1.902873039
1252,3.734168291,1.400817275,8.065768242,9.640785217,-0.569613934,7.138383865
1253,3.937673092,0.904735267,8.572327614,5.637634277,7.199856281,10.80840683
1254,4.261016846,0.925225198,8.705006599,-1.020807981,16.34845734,9.34958744
1255,4.164448261,0.566917658,8.724885941,-9.42966938,22.07465553,7.082663536
1256,3.567181826,-0.116707653,9.015162468,-8.168671608,19.13388824,5.732444763
1257,2.862777472,-0.405090392,9.287261963,-0.013741218,10.93243217,4.450586319
1258,2.910281897,-0.125437289,9.528470993,1.316345572,4.435652733,3.566101074
1259,3.728436708,-0.340366483,9.746504784,-2.055829048,4.766772747,1.799644351
1260,4.191416264,-0.266214013,9.553813934,5.181763649,4.079725742,-0.155289814
1261,3.321795225,-0.04916415,9.331824303,8.053817749,-2.148329496,-0.524983525
1262,2.710162163,-0.095430017,8.959810257,8.989569664,-9.493134499,-0.998742163
1263,3.422953844,-0.214995086,8.739425659,1.868172407,-14.05660534,-3.534708977
1264,4.62410593,-0.777655303,9.139515877,-11.05960655,-18.04384232,-1.065579653
1265,4.495389938,-0.980163574,10.07631969,-20.07594872,-25.27913857,2.816542864
1266,5.007069588,0.267021149,9.219677925,-15.50202847,-23.78877258,3.501515627
1267,4.020991802,1.991560817,9.103691101,-14.66969299,-25.49117851,1.541831613
1268,4.497971058,2.390360355,8.137152672,-14.67512608,-34.6568718,4.448070526
1269,4.616244793,1.324982643,7.813262939,-7.084114552,-38.03010178,7.372765064
1270,4.516608715,0.432344079,7.824295998,-5.781062126,-46.57456207,7.264631748
1271,5.011600971,0.237149462,7.918051243,-21.57573128,-52.45450974,5.299808025
1272,5.351016998,-0.260276258,7.984399796,-32.15226364,-58.48975372,6.429075241
1273,5.148944378,-0.316568553,7.678793907,-26.77140999,-63.97746658,3.581542015
1274,5.489728928,-0.16913113,7.104401588,-19.50567245,-77.49152374,-0.582266569
1275,6.486886978,-0.176375091,7.306529045,40.26447296,-72.52278137,-8.959386826
1276,5.781118393,-0.005250864,7.623664379,99.40229797,-84.30388641,-7.816902161
1277,6.267146587,0.042271022,8.436952591,67.87125397,-106.1571579,0.599710107
1278,6.828629017,-0.753599882,7.877616882,74.6984024,-105.5527344,-2.046126842
1279,7.505883694,-0.290262043,8.38842392,50.06248856,-106.4668884,-12.91183281
1280,7.00624752,1.815685153,6.883564949,27.22586441,-87.73336029,-13.15085506
1281,6.884477615,2.295512438,6.612244129,15.18183041,-72.06110382,-7.971364498
1282,6.735772133,1.33395946,6.981904507,14.30066967,-66.76611328,-4.389114857
1283,6.112649918,0.530736625,8.090818405,13.40665627,-69.04814148,0.011391446
1284,6.250281334,0.805205941,7.845581055,14.13733578,-76.11564636,3.134861946
1285,6.043864727,1.236947656,8.047842979,20.49971581,-83.18369293,4.70985651
1286,4.95246172,1.120937228,7.687160969,21.85414505,-81.45804596,6.443811893
1287,3.866993904,0.894352019,7.783352852,25.84224701,-74.93821716,5.954605579
1288,3.560111523,1.026609302,7.733225346,27.34942436,-68.55469513,0.492586464
1289,4.135858059,1.299590111,6.931410789,25.74058342,-54.29661942,-1.594590187
1290,5.346946716,1.43827045,6.601147652,25.57112122,-43.22662354,-1.602562428
1291,5.230882168,1.007138968,6.66937542,25.09231377,-30.51812553,-10.00870705
1292,5.408942223,0.679462492,6.509645939,22.1432972,-12.36783218,-13.04468822
1293,5.537698746,0.51989907,6.305894375,16.12248039,2.629333019,-11.83189201
1294,4.953952312,0.419846445,6.157739639,10.31702614,17.7209301,-11.41688156
1295,4.159321308,-0.194677144,6.259908676,-5.576614857,33.80312347,-12.14737892
1296,4.914515018,0.220327556,6.219776154,-29.25084305,52.42648315,-9.513948441
1297,5.378666878,0.855325699,6.180689812,-54.17198181,66.8888092,-4.169574261
1298,4.681711197,0.350342155,5.9914608,-67.40973663,76.32554626,-1.472130895
1299,3.853378296,0.073598526,5.499572277,-73.06925201,82.14938354,-2.862712622
1300,4.074768543,0.149036765,5.06336689,-63.48797607,78.56427002,1.303995848
1301,5.001698971,1.10772109,5.829056263,-61.98029327,78.17462158,5.201539516
1302,4.112996101,1.210461855,5.603162289,-43.33374786,88.70050812,4.713673592
1303,5.102041721,1.03808856,6.329789162,-31.58183861,95.09574127,0.645366788
1304,5.744503975,0.440613598,6.948432446,-18.59061623,94.65304565,-5.604460716
1305,5.928456306,0.039168611,7.944783688,-8.13821125,90.32917023,-6.648777008
1306,6.934296131,0.487679303,8.152385712,-4.125210762,80.1371994,-3.859318972
1307,6.991339684,0.539644003,8.109099388,-1.86988318,65.37416077,0.423749238
1308,7.213461876,0.435511202,7.950194836,-3.795535803,54.86824036,1.905573249
1309,9.008893967,-0.113569699,8.489565849,-9.53918457,43.70622253,-1.057837486
1310,12.14404964,-0.184760317,10.54785728,-8.859464645,36.74084091,-5.551593781
1311,14.65722752,0.641217232,11.1393013,-2.283941031,25.02579689,-2.048457146
1312,15.86699009,1.490628481,9.28881073,-8.715472221,-14.25883675,-6.700404644
1313,16.46041489,1.692912221,7.777805805,-22.1600914,-30.66194534,-13.55242157
1314,14.64199162,0.91329211,6.054429531,-24.88323784,-10.88603306,-11.28678322
1315,12.16536808,0.559632659,4.348786354,-18.66454315,27.81526566,-12.90616894
1316,11.28065586,-0.214787334,2.315573931,-8.436364174,74.81430817,-4.593499184
1317,10.72717571,0.029809995,1.949795723,2.750219345,101.9920197,4.023998737
1318,9.465763092,0.774584889,2.038194656,-18.93809319,107.7918015,9.495882988
1319,5.526220798,1.793018699,-0.567624152,-15.82160378,49.73049164,6.988743305
1320,2.424435854,-0.672888398,3.003927231,-11.66526699,14.29434299,4.186676025
1321,-0.406554878,0.434617549,6.532497406,-16.82945061,26.96253204,10.13638496
1322,-0.895165086,-0.415104359,9.182781219,-11.15189743,48.92083359,20.53338242
1323,1.429777384,-1.247246265,10.47239208,-11.0646534,50.54692078,19.83875656
1324,4.684939384,-0.617706299,10.64243698,4.831833839,47.370121,17.72863579
1325,6.143625736,-0.164468348,10.59779072,8.474896431,46.77376938,10.85049438
1326,7.544029236,0.906910837,10.02598476,32.17525864,35.36861038,4.885629654
1327,5.322153091,1.38143146,10.32003403,21.54490852,27.65598679,10.74802971
1328,1.98192513,1.202465534,10.12521648,5.408995152,29.06311035,16.44685745
1329,0.659981251,-0.037817203,9.724362373,1.785334945,28.99203682,21.94994545
1330,1.829309344,-1.035744786,8.963780403,0.509547353,24.63890457,21.92325401
1331,3.17400074,-1.226662278,8.671447754,8.708872795,18.28103065,19.82034492
1332,3.646735191,-1.196958661,8.552313805,14.1088028,13.03343964,14.30037498
1333,3.247303247,-0.788712919,8.468140602,26.01647377,9.520248413,5.356225967
1334,2.553616524,-0.183004111,8.68319416,35.63632584,6.554467201,1.936463475
1335,2.787615538,0.737649143,8.931585312,34.91543579,7.858018398,-0.094562516
1336,3.101447105,1.549139738,9.167086601,22.65518188,12.31506824,0.224258915
1337,3.258742094,1.366226673,9.948494911,9.071188927,13.70809078,3.146926641
1338,3.632984638,0.552337468,9.871275902,6.230289936,16.63459206,3.1524086
1339,3.284495592,0.211268812,9.513236046,9.691902161,15.67675304,3.442716122
1340,2.560078859,0.143253416,9.704879761,12.48074341,12.06200027,3.457788706
1341,2.407040834,0.013553079,9.803625107,13.09211731,11.26653099,3.271071434
1342,2.460474014,0.167143762,10.08309555,15.39012909,5.87382412,3.167032719
1343,3.294084072,0.209681615,10.23907948,19.91923523,0.768939078,-0.234305322
1344,2.967006207,0.195894182,10.56112576,26.11094856,-3.120095491,-4.317466259
1345,2.949212074,0.256958455,10.77041149,32.74752045,-10.44253349,-5.198964119
1346,3.306998014,0.542682946,10.40773392,32.68076324,-15.47949219,-4.504206181
1347,3.535220385,0.96230036,10.30164146,26.18207932,-21.60728073,-2.761431217
1348,3.570445299,1.348228455,9.802017212,10.78125858,-21.53064156,-0.817443728
1349,3.273589134,0.998686612,9.613654137,1.250228643,-23.10998726,0.786317825
1350,3.904874802,0.624057412,9.235310555,-1.078297496,-27.24401665,0.435961306
1351,3.510665655,0.621925414,9.274842262,1.255005598,-23.74289131,-0.083971404
1352,3.899597883,0.910303295,9.237286568,-1.538532019,-23.22760963,-0.24303934
1353,4.226346016,1.119527102,9.485376358,-7.980592728,-26.65637398,-1.225404501
1354,3.894117355,1.206837893,9.373691559,-11.38703728,-24.43836594,-0.999729991
1355,4.141195297,1.43266499,9.403628349,-18.97920609,-25.04040718,0.993936419
1356,4.786105633,0.867649317,8.543305397,-29.46909714,-21.02599907,1.987151384
1357,4.718849659,0.656793952,8.531578064,-39.79442978,-23.81293488,2.440210581
1358,4.818406105,0.585568368,7.759644985,-49.20757294,-21.93824768,2.70152092
1359,5.026118279,-0.372336447,7.596743584,-43.54734802,-22.67239952,0.751655936
1360,4.888714314,-0.877161622,7.95892477,-35.66489029,-17.80988884,0.231290385
1361,5.030620575,-0.852687478,7.925504684,-30.05029106,-21.43157768,-0.526676416
1362,4.918682575,-1.232683182,8.05202961,-24.68920708,-33.24510193,-4.61039114
1363,5.232595921,-0.583968103,8.728740692,-20.51678848,-43.27694702,-9.958827019
1364,5.876897812,0.732461929,8.864689827,-25.9702549,-44.35478592,-14.35560131
1365,5.93417263,0.852125108,7.020149231,-7.237690449,-42.03954697,-17.3256588
1366,4.908204556,-0.709950149,6.869038582,5.658610344,-42.95268631,-15.26151466
1367,5.100372791,-1.971383333,5.655949593,28.72663879,-57.30477524,-22.80355072
1368,5.762105465,-2.286670923,5.629057407,21.20740318,-73.00839233,-28.6447258
1369,6.23950243,0.468501598,6.413363934,14.84389305,-71.34684753,-31.10954094
1370,6.187900543,2.563749313,7.460103035,32.06813049,-69.13891602,-18.56364059
1371,5.698556423,2.093673468,8.421028137,39.89958191,-72.11784363,-4.129007339
1372,5.235304356,0.290083826,6.732597351,10.13066673,-63.31019974,-0.116616301
1373,5.451538086,-0.355372548,6.576312065,-3.732098579,-66.95937347,-2.792315722
1374,5.035494804,-0.210426524,7.522994995,-12.70432377,-74.74651337,-3.191752672
1375,4.738258362,0.090178199,7.763382912,-10.7933073,-81.55809021,-1.137064457
1376,4.578829765,-0.022644574,8.276926994,-5.710305691,-92.20378113,4.17183876
1377,4.051353455,-0.055496696,8.184977531,-3.967416286,-98.8310318,7.57786274
1378,3.834383726,0.44247064,8.17102623,-6.34124279,-98.4438858,4.75488472
1379,4.448585987,0.128939137,7.88145113,-7.236829758,-91.96537781,0.915700734
1380,4.36386919,-0.647856772,7.175904751,-8.425775528,-77.79499817,3.561068773
1381,4.029785156,-0.372946918,6.522808075,-13.09538651,-60.43549347,5.783482552
1382,4.646983147,0.366856247,6.474337578,-21.05661774,-43.26865768,7.037166595
1383,5.245737553,0.437614173,6.738906384,-32.8621254,-28.31781197,9.042759895
1384,5.431331158,-0.081915013,6.873104572,-42.89799881,-8.814007759,11.19316864
1385,5.500414371,-1.234881163,7.191203594,-47.21573639,12.6099968,14.84509563
1386,5.837908745,-0.855863452,7.332946301,-60.17348099,27.59121513,17.05674553
1387,4.561137676,0.060754232,7.284754276,-63.77389526,38.83520508,22.58631897
1388,3.665640593,-0.042569689,6.804048061,-61.32891846,62.73434448,21.75129509
1389,3.880485058,-1.042967558,6.851457596,-50.0943985,82.01565552,22.110672
1390,4.546944141,-2.153538465,6.690863132,-41.7591362,99.2035675,15.26308441
1391,4.584131718,-2.459356785,6.878321171,-35.50370407,105.4490814,7.196516991
1392,4.574948311,-1.511998653,6.250676632,-40.69226074,105.5615997,4.114424229
1393,4.275427341,-1.005652189,7.03496027,-36.1829071,110.8412094,12.88408852
1394,4.391368389,-1.169534087,8.232593536,-18.73367119,115.6676331,22.17766953
1395,4.726157665,-2.047094584,7.037261009,0.938368022,106.8865662,28.18119621
1396,4.702316284,-2.314139128,7.381160259,12.39346981,105.6301117,32.63390732
1397,4.520403385,-2.218976974,7.886179924,33.12795639,99.62490082,29.91342163
1398,4.965653419,-1.885200262,9.077992439,46.83221436,95.84067535,26.74461937
1399,5.487157345,-1.266764998,9.514226913,45.32656097,77.34056091,28.0420475
1400,6.054173946,-1.99087131,9.964333534,46.11300659,55.98936844,29.63837051
1401,7.124104977,-2.180899143,9.682038307,38.66958618,44.00541306,27.0938282
1402,9.071258545,-1.279259443,10.09484959,47.68461609,56.53178024,19.86101532
1403,10.81097221,-1.623017907,12.27421284,57.22557831,83.56336212,-1.584638119
1404,12.13169479,-2.781218529,10.64643669,56.47862625,71.81085205,-26.18020248
1405,12.94081497,-0.927606642,7.387266159,65.13208771,52.48799133,-30.78572655
1406,12.15988541,0.694206834,7.268742085,67.40307617,63.52438736,-27.23409462
1407,11.28744507,1.580571651,8.256173134,47.54894638,64.23823547,-40.81568146
1408,11.74535179,2.047003508,7.714533329,43.18248749,69.67152405,-53.56287003
1409,10.47194481,1.7378546,6.622441769,42.35067368,67.06015015,-40.71768188
1410,8.936932564,-0.120045207,3.518091917,2.553928137,60.66918945,-29.7686348
1411,8.513918877,-0.676769018,4.178334236,-13.24012089,47.22852707,-32.19636154
1412,4.398399353,-0.833973169,5.701483727,-35.93153,39.27299881,-44.94561386
1413,0.972946703,-2.194759607,5.873682976,-42.95964813,28.06332207,-38.26328278
1414,-2.141544819,-0.923360825,7.732592106,-31.096838,27.23239708,-23.20565796
1415,-3.280762434,-1.732390165,7.553558826,-38.39831543,32.75575256,-14.11587143
1416,0.682248235,-1.087920785,9.403915405,1.103316665,31.59383011,-15.98526192
1417,2.987755775,0.966163933,11.76783562,12.01037693,35.59512329,-11.55386066
1418,4.352874279,0.882296205,11.33722878,-1.248918772,33.71313095,-7.09354353
1419,3.771511555,0.257103801,11.28070068,-0.160451293,29.31651497,-9.838100433
1420,1.233101487,0.222308785,11.04709816,2.230111361,28.4663887,-10.49424934
1421,-0.351170927,-0.428066552,10.69634151,2.556199074,25.58482933,-9.382033348
1422,-0.194473669,-0.475220889,10.43461418,-0.624092937,21.35401726,-7.728453159
1423,0.854405046,-0.808659732,10.35764599,-2.111526012,13.92395496,-6.11453867
1424,1.456787467,-1.120187044,9.246109009,0.582272947,4.113471508,-9.833026886
1425,1.21699512,-1.132243872,8.300823212,2.240541935,-0.469519317,-10.03385544
1426,1.140703201,-0.25011307,8.556310654,12.77490044,-1.513762832,-8.642640114
1427,1.54918623,0.895493448,9.088894844,18.65524673,0.292209268,-4.88446331
1428,1.823116183,1.780210853,9.203744888,7.112512589,0.651094019,-1.755097628
1429,1.875252724,1.285881877,9.744581223,-7.423585892,-1.595953107,2.177534342
1430,1.49976027,0.210266933,9.545501709,-17.73174477,-6.999947071,4.663969517
1431,1.073044062,-0.440894693,9.558880806,-18.79669952,-15.33999062,2.308215141
1432,1.662537336,-0.834117532,9.437316895,-18.3510437,-27.53887939,3.302161694
1433,1.441956639,-1.191958427,9.712373734,-16.06383514,-35.32040024,6.736477375
1434,1.484289169,-1.345866442,9.975276947,-6.130872726,-40.75531769,6.312717438
1435,1.845012903,-1.192048311,9.855200768,1.841623306,-43.72369385,5.483492374
1436,2.153535366,-0.600557506,9.663117409,1.499424458,-47.86993027,2.323263407
1437,2.190719604,-0.310171932,9.934300423,-2.709564209,-48.14479065,-0.515715957
1438,2.47607255,-0.495684296,9.6622715,-6.348070145,-48.22162247,-0.615465462
1439,2.314968109,-0.543684304,9.91373539,-3.017100573,-50.30475616,0.251192391
1440,2.805968046,-0.226506442,10.03294945,0.824907601,-44.89210129,1.762928009
1441,3.211697817,-0.099357493,10.1632576,-2.531503201,-29.41846466,6.498685837
1442,3.988167286,-0.591594875,10.93807983,-1.998384833,-27.73092079,5.364498615
1443,3.947561264,-1.263091683,10.48764133,4.224681854,-30.97944069,-1.314525247
1444,3.559014082,-1.356091738,9.575109482,10.36616325,-32.79850769,-8.199543953
1445,3.259603977,-0.164938793,9.413156509,9.710584641,-39.93805695,-11.06820011
1446,3.457632303,1.25225234,8.887468338,-1.665121317,-47.30948639,-12.99492931
1447,3.934815884,1.842900038,8.482325554,-15.30442524,-48.91506195,-8.84069252
1448,4.510261059,0.898690641,8.392961502,-22.11132622,-47.6461792,-3.422427893
1449,4.508351326,-0.71411401,8.086417198,-15.04829502,-47.0965538,-1.687776327
1450,4.952380657,-1.457115173,7.768513203,-5.765462875,-52.91441727,-1.37806654
1451,5.017971516,-1.786313891,8.39005661,5.831920147,-57.40315628,-0.650250018
1452,5.869997501,-1.205599189,9.21823597,1.71077621,-58.57297897,1.430032015
1453,5.386554718,-1.19746244,9.827141762,-23.27673149,-50.78581238,4.627465725
1454,4.496637821,-2.309766293,9.000828743,-19.23235512,-65.56967163,-6.119832039
1455,5.699288368,-3.157389879,7.493393421,10.8743124,-85.56000519,-15.90578747
1456,5.847915649,-0.613668382,6.361643314,40.13368988,-60.03022766,-20.52206993
1457,5.744482994,1.595422983,7.365612984,96.62995911,-54.10709,-8.617817879
1458,5.917413712,0.487250268,9.448735237,98.76457214,-73.7817688,9.663403511
1459,5.464737415,0.11995741,8.402934074,92.53529358,-72.97660828,7.056228161
1460,5.706026554,0.311820477,7.988244057,66.47039032,-68.81291962,3.087063789
1461,5.22627449,0.851174116,7.863224983,52.47905731,-68.92738342,1.81708324
1462,3.903542042,0.991849601,7.859146118,48.29243088,-67.65621185,4.310113907
1463,4.258392334,0.906665146,8.297591209,45.50512314,-75.8292923,4.38498354
1464,4.425844193,0.790664971,7.918962955,49.17668533,-85.70345306,3.666385889
1465,3.250147581,0.531419814,7.608341217,51.43280029,-84.76785278,-0.092157692
1466,2.804026604,0.711277604,7.691866398,47.09275436,-77.25341797,-5.58506155
1467,3.437069178,1.83917892,6.973202229,38.77866745,-64.21899414,-8.977919579
1468,3.75953722,2.548363447,6.657686234,28.22461128,-52.98222351,-5.219332695
1469,3.174910307,2.656430721,6.62323904,24.63719559,-33.98120117,-0.187114745
1470,3.235416651,1.820295453,6.559099197,18.40159798,-10.22806454,4.155661106
1471,3.359021425,1.451701164,6.117791176,8.186802864,7.771082878,2.893346786
1472,3.270017147,0.881485879,5.657720089,-8.138951302,22.9175148,2.35562396
1473,3.526409388,0.733535647,5.688532352,-21.34534073,32.26906967,3.47365737
1474,4.001677513,0.480170578,6.11524725,-31.73304939,38.68621826,0.390513897
1475,4.358649254,0.732103884,6.263588428,-44.18427658,47.11034775,-2.788252592
1476,3.932616472,1.027335525,6.496263027,-56.18381119,56.12060547,1.383635163
1477,3.763170719,0.9116714,6.948469162,-68.17250061,65.10845947,4.750030994
1478,4.543980598,0.13433519,7.451975822,-75.95747375,66.82958984,1.757805109
1479,4.364565372,-1.12684238,7.828987122,-69.59700012,70.63506317,7.15319109
1480,3.86465168,-1.577357411,8.083561897,-58.03764725,79.21426392,11.40108585
1481,3.873724937,-1.160325885,8.412743568,-48.69180679,88.74516296,10.84873676
1482,4.861813068,-0.761305273,8.758512497,-47.58716202,88.34959412,11.04655743
1483,5.410224915,-0.256654114,8.254076004,-39.09094238,88.38480377,6.618776321
1484,5.397474766,0.017646715,8.672780037,-41.2259407,86.83737183,3.238991022
1485,6.097569466,0.627169251,8.346879959,-43.05083084,71.97599792,8.615579605
1486,5.546564102,0.790012896,7.995689869,-41.42114258,64.97337341,24.51818657
1487,6.447422028,0.827917933,6.650943279,-12.81128788,49.54702759,38.90543365
1488,9.401334763,1.286211967,9.007725716,14.75494194,58.12545776,47.63345337
1489,13.99675083,-1.248730302,13.66557598,-2.22307086,84.97398376,37.64641571
1490,16.44651985,-4.282767773,13.99718761,10.5692358,103.5311127,5.998806953
1491,16.34383774,-3.951058149,9.70798111,15.75014496,70.92765808,-10.53060532
1492,12.93678284,-0.81107384,7.838533401,24.68702888,47.55512238,-20.89426231
1493,9.97582531,2.244229555,8.678452492,14.60408497,59.93534851,-30.36090088
1494,9.003868103,2.222872019,7.662951469,-10.36211681,70.94535828,-21.40171623
1495,9.867871284,-0.449209213,4.057260513,-23.75955772,58.977108,-0.094473772
1496,9.07516098,-1.767555356,2.378860235,-21.25511742,45.98628616,9.564147949
1497,6.491793156,-1.208524346,4.823007584,-22.17733574,32.611866,10.38195801
1498,1.547298431,-0.923417389,3.783872128,-0.29630056,6.566130638,-4.531886578
1499,-1.323069334,-2.212110281,4.748641014,44.16695023,25.27316093,-1.126418471
1500,-3.821811438,-2.874519587,7.08184433,17.37150574,38.03192139,5.381677151
1501,-1.481781244,-1.024132729,8.01252079,11.68268394,21.67211151,13.10001755
1502,4.20983839,2.081808329,10.73753071,-1.478804588,23.25216293,15.14705276
1503,6.145535946,2.642663002,11.36226177,-12.97377682,26.41101074,13.17890263
1504,4.387742519,-0.069995381,12.43460083,-38.68438339,32.31641769,15.56960964
1505,2.866756678,-2.863117456,10.62718773,-22.04263496,25.79453278,4.639163971
1506,0.900489569,-3.117371321,9.220345497,-4.735677719,16.07861137,-3.290069818
1507,-0.831327438,-1.459330797,8.174546242,7.253884792,6.717592716,-4.09784174
1508,-1.039510608,-0.594601691,7.61969471,33.0208931,-9.635436058,-2.533004284
1509,0.387321144,-0.596045434,8.504323959,43.62663651,-26.67799759,0.628355742
1510,2.190345049,-0.395026952,9.339247704,46.25125504,-39.11142349,0.233251497
1511,2.739669561,-0.495533973,9.597263336,40.32790375,-39.73872375,-1.613439202
1512,3.151970625,-0.65257442,9.436703682,33.64582062,-29.5889492,-7.510171413
1513,3.667005062,-0.500474453,8.964014053,25.51879692,-19.46341324,-12.2677269
1514,3.205035925,0.059651364,9.235804558,21.67989731,-15.48407173,-9.902447701
1515,1.743789434,0.731971264,10.18558025,21.37742043,-16.6582756,-5.990275383
1516,1.61990273,1.416481733,10.9828043,18.03053856,-17.63450813,0.768619478
1517,2.239248276,1.45399332,11.01730347,11.6984787,-11.51821041,4.585068703
1518,3.086338282,1.456575871,10.91695881,14.65054035,-9.728894234,7.138198376
1519,3.720342636,0.956725538,10.48038483,15.92476559,-6.576967716,11.97001743
1520,2.909352303,0.075548314,10.628438,21.53765678,-4.443930149,16.12043762
1521,2.320561409,-0.196710035,10.44496536,29.19296646,-11.07241917,16.53246307
1522,2.977365732,-0.165260181,10.16400814,23.83729935,-13.24807262,14.36325932
1523,3.049020052,0.161616042,9.643026352,15.5515604,-18.14208031,9.431419373
1524,3.004212141,0.47437349,8.986856461,18.57413483,-26.44388008,6.97571516
1525,3.515994072,0.764477313,8.789118767,21.65715981,-32.34041977,5.704638481
1526,3.879569292,0.807862341,8.53268528,16.34498787,-30.8724556,5.96154213
1527,3.949459314,0.886301577,8.678415298,9.928362846,-26.14404678,5.61590147
1528,4.047516823,1.025654912,9.061527252,-1.462230682,-17.37120628,6.214268684
1529,3.940600395,0.445306271,9.417884827,-12.80766869,-9.43905735,5.349646568
1530,3.714141846,-0.267130405,9.80034256,-20.56675529,-9.62434864,1.212129712
1531,4.174463272,-0.273069263,9.377307892,-25.20696068,-16.7977581,-4.306584358
1532,4.475512028,-0.210768029,8.899635315,-26.83478928,-23.38624001,-7.072683811
1533,4.232783318,-0.430339545,8.891331673,-20.94195366,-26.54374504,-7.720455647
1534,4.607722282,-0.458464205,9.276429176,-11.45317268,-30.18888283,-8.915380478
1535,5.058570385,-0.410105288,9.334293365,-8.392226219,-37.81775284,-7.791118145
1536,5.498991966,0.038508259,9.246070862,1.043821812,-46.64117813,-6.676374435
1537,5.390052319,0.166861728,9.035400391,6.999140263,-51.23254395,-4.879957199
1538,5.458015442,-0.062021691,8.810180664,7.938558102,-51.00820541,-5.563079834
1539,5.238263607,-0.691716015,8.911770821,8.491609573,-52.2357254,-6.44813776
1540,4.80636549,-0.712449372,9.587026596,9.993563652,-60.79471588,-8.467878342
1541,4.343612194,-1.054234862,8.642994881,17.7584877,-84.22735596,-6.831483364
1542,5.612690449,-1.241853118,7.847624302,17.06863976,-78.92339325,-6.811419487
1543,5.926051617,-0.357619494,5.732497215,45.30507278,-52.74372482,-5.362853527
1544,6.964156151,0.174342573,6.667049885,73.24776459,-59.02096939,-0.518148303
1545,6.904660225,0.783247232,7.73256588,82.54938507,-74.87284851,7.703275204
1546,5.480768204,2.002476931,7.959576607,77.5463562,-86.54747009,13.29639149
1547,4.95814991,1.786300063,8.576960564,74.11693573,-94.15563202,15.44442749
1548,4.679209232,1.036871791,8.711399078,68.30214691,-92.25257874,12.30013466
1549,4.626545429,1.269282103,7.977185249,50.63384628,-84.27874756,6.194918156
1550,3.840602636,2.19935441,7.81462431,29.03282166,-75.47952271,1.921131134
1551,3.941637993,1.788379788,7.740807056,16.62335968,-69.71495819,1.582566857
1552,4.135581493,0.811062157,7.836658478,10.78384686,-67.11514282,1.663411975
1553,3.814246655,0.809093773,7.839512348,4.18298912,-62.44345474,1.914159417
1554,3.153367758,1.566891789,7.972454548,-3.232418537,-52.71249008,-0.07709498
1555,2.951474667,1.594558716,7.637738228,-9.072813034,-34.21654129,-3.425226688
1556,3.568894386,1.27201879,7.357693195,-11.99741173,-12.21031761,-5.931472301
1557,3.33484745,0.980596542,7.230282307,-17.27798843,2.253811121,1.986017346
1558,2.475555182,1.132316709,6.988190174,-26.00937271,19.49599075,5.533113003
1559,2.278436661,1.311313987,7.247039318,-34.19833755,44.39029312,5.248772144
1560,3.029972076,1.255802989,6.848612785,-49.1079483,53.86004257,6.26139164
1561,3.715148687,1.241449356,5.80240202,-45.29701996,57.9418869,6.959072113
1562,4.337620735,0.830329895,5.458611965,-35.71133804,56.72661972,8.916776657
1563,3.65054512,0.629701018,5.348263264,-27.28712845,60.14693451,4.167551994
1564,3.686658382,0.77093339,5.637230396,-30.95219421,63.79510117,-0.445668906
1565,4.859631538,1.343264461,6.008677959,-38.108078,63.42671585,-0.711355329
1566,5.857803822,0.739978075,6.997975826,-42.17227936,55.02085114,1.423033595
1567,5.852553368,-0.124114566,7.566882133,-45.81624603,50.60071182,1.697913051
1568,5.640367508,-0.937743306,8.077549934,-45.51515961,50.32365799,0.60096693
1569,5.516570091,-0.501179039,8.077383041,-36.36420059,41.57297134,-1.610774398
1570,5.887728214,0.295432866,8.069477081,-31.01163101,33.05362701,-3.274914503
1571,6.200603962,0.810293794,8.388706207,-30.91268158,30.11774254,0.534623861
1572,7.279246807,-0.256348819,7.685148239,-34.602314,35.40321732,4.835597992
1573,9.864398003,-1.027960062,8.834243774,-19.4685173,46.62117767,4.147226334
1574,13.35604858,0.050792433,10.27192974,15.50729942,62.30338669,-2.396333456
1575,14.54397488,2.710040331,9.431529045,23.67070961,59.48445892,-4.934434414
1576,14.65482998,2.354797602,8.118782043,-2.582716942,32.05138016,0.660316944
1577,14.37867737,0.56502229,7.203873158,4.742313862,55.63838577,3.440866947
1578,12.94090557,-0.440291196,5.391954422,15.84355259,86.05142975,0.393620163
1579,11.06225109,-0.703711689,3.531224728,3.168179989,94.76239014,-1.254857063
1580,9.581104279,-1.447646379,3.718369007,-20.97236061,83.94541168,0.045739084
1581,8.329497337,-1.108564377,4.315626621,-44.79314804,70.61597443,-1.795289636
1582,7.410743713,-0.071606413,5.341069698,-49.94230652,67.18698883,-0.62846148
1583,4.41021204,0.010529663,4.426603317,-74.91604614,54.28120422,4.724219799
1584,1.712813735,-1.4278723,5.385896683,-55.24795914,35.14566422,8.596605301
1585,-1.62751615,-1.557619214,7.690843105,-41.71310806,37.29139328,8.64528656
1586,-1.752846956,-1.623290181,8.738587379,-28.58490181,32.89638901,8.106609344
1587,1.396133065,-2.051376581,9.379748344,-1.451065898,28.20664597,4.185376644
1588,3.637943029,-1.324272037,10.22189331,9.804598808,25.39072418,2.116491795
1589,4.679968834,0.240403309,10.50612926,4.817762852,20.36975479,2.50302434
1590,4.552028179,0.4003039,10.27240944,-4.409859657,18.51819038,4.453151703
1591,3.164225817,-1.188210487,10.36368561,2.823860645,16.51955986,3.397905827
1592,1.81165421,-1.899168134,10.18665314,15.32291985,14.27817535,0.436946988
1593,1.614403248,-1.568624377,10.02305317,28.9634304,11.547966,-0.250736356
1594,1.73245573,-1.443024993,9.68460083,36.95078659,6.208402634,0.381791234
1595,2.310376883,-1.241842985,9.442421913,37.34712601,-0.114758253,-0.464142799
1596,2.819782495,-0.503279209,9.298354149,39.22397232,-6.535718441,-2.330128193
1597,2.896001577,-0.192294002,8.98984623,36.89390564,-11.74463749,-2.324480295
1598,3.032733202,0.110980645,8.936275482,33.23458099,-13.37790585,2.087028265
1599,3.084202051,0.157562122,8.890789032,26.62585831,-10.11001587,7.684633255
1600,3.247869492,-0.166835487,8.906839371,22.70221901,-5.430339813,10.17914486
1601,2.99842453,-0.252382576,9.211114883,24.11024284,-2.431470156,6.577413559
1602,2.795879602,-0.213368133,9.204471588,21.21794701,-1.357027054,1.334929705
1603,2.970634937,-0.192519277,8.962650299,22.31275177,0.116237044,-1.357680321
1604,2.620342731,-0.169323891,9.005179405,25.30871391,1.104197979,-3.199545622
1605,2.637897491,-0.207168579,9.419625282,28.72223282,1.000582218,-4.798284054
1606,2.80884552,-0.088527858,9.615177155,33.21942902,-0.296519428,-6.453452587
1607,3.053608179,0.374012619,9.802501678,33.36180115,-0.855634212,-8.653618813
1608,2.895489216,0.845718086,10.48768044,30.08160782,-5.771162033,-6.453281879
1609,3.329939604,0.915091455,10.64384079,22.57323456,-10.43882465,-4.814250469
1610,3.734844685,0.65884465,10.41339302,13.97533798,-12.46748447,-3.823314905
1611,3.643592358,0.411042809,9.76215744,12.26221466,-12.12162018,-1.92213285
1612,3.591043234,0.237663984,9.566819191,6.294866562,-7.500205994,-0.830376625
1613,3.264817953,0.302618533,9.579792023,-1.207318783,-1.477263808,-2.437855244
1614,3.395687103,0.319394737,8.741348267,-3.184593678,2.146453381,-4.275656223
1615,4.002850056,0.316830218,8.021531105,-3.730260134,9.654587746,-3.194007397
1616,3.668128252,0.931305528,7.354264736,-6.501571178,28.16218376,-0.52256459
1617,3.467152119,1.364784479,6.887600422,-4.327212334,27.32275391,1.503270626
1618,3.400318861,1.078661084,8.018494606,3.150231123,17.74225235,4.846204281
1619,4.117186069,0.438450545,8.755940437,-9.024717331,9.231739044,6.684541225
1620,4.233547688,0.61700362,8.827319145,-5.56030035,-0.990763426,5.341356754
1621,4.05871439,1.362792253,8.904839516,-5.064609528,-15.32898712,5.041897774
1622,4.030013561,1.455987692,8.716198921,-7.578808784,-27.85740852,4.320587635
1623,3.647268772,0.654708743,9.063857079,-9.963516235,-35.3942337,5.583410263
1624,3.80870223,0.002739191,9.398659706,-12.44386578,-43.11763382,5.266899109
1625,4.76086235,-0.470529497,9.6468153,-18.85997772,-52.68893814,2.699102402
1626,5.335502148,-0.533893585,9.01098156,-20.65652847,-63.24234772,1.19990325
1627,4.959322929,0.184016585,8.497314453,-18.88879013,-69.69664001,0.496056676
1628,4.213563919,0.534935534,9.33668232,-15.38602543,-81.72127533,1.127863526
1629,4.42719698,0.046418656,10.9705534,1.100251913,-100.2992783,-4.918159485
1630,5.021394253,-0.882854879,12.10554218,9.497091293,-129.8409576,-14.59134674
1631,5.131278515,-0.88584733,12.07931423,19.20279121,-150.7266541,-18.25993156
1632,5.179769039,-0.573169649,10.37247467,19.40981674,-148.0868225,-16.20835304
1633,5.484858036,0.488630116,8.002509117,8.7716856,-130.0488281,-16.24451065
1634,5.407040596,0.920641899,6.977963924,18.222435,-114.2978668,-14.65548229
1635,5.77422142,0.577052832,6.793110371,30.518013,-102.1462479,-10.00728607
1636,5.863285065,-0.135027125,7.314266682,40.13776779,-96.19843292,-4.197185516
1637,4.791717529,-0.331148982,7.970620155,43.43600845,-88.2605896,-3.101868153
1638,3.83645916,0.507368565,7.794571877,35.33527374,-71.35741425,-6.287879467
1639,4.098156452,1.560628533,7.293936729,25.21294403,-53.67930603,-8.942851067
1640,4.272996902,1.864983201,6.785577774,18.32580948,-38.58019638,-8.587725639
1641,3.995995283,1.383390665,6.656393051,9.906957626,-22.86643219,-7.764712811
1642,3.740959644,0.680378318,6.622482777,2.159874678,-6.768195629,-5.564706326
1643,3.906083345,0.21606186,6.653895378,-7.373617172,9.026284218,-2.711233616
1644,3.982524872,-0.38338542,6.644269466,-13.13715553,21.18768692,-4.942955017
1645,3.652907848,-0.346805453,6.855424404,-21.56974411,34.93296814,-10.8073473
1646,3.511872053,0.353598416,6.804110527,-27.15352631,48.38101959,-13.55234814
1647,3.581219435,0.836888075,7.019546509,-25.98814774,61.40343475,-10.82353592
1648,3.3460536,0.348072827,6.94770813,-22.98295403,69.47219086,-4.481180191
1649,3.217747688,-0.459061623,7.332931042,-22.4079113,74.11562347,-4.237787724
1650,3.998264074,-0.23958613,7.052963257,-20.97741318,73.14656067,-4.922810555
1651,3.975675821,0.01619954,6.961817265,-14.44524574,69.97440338,-4.473939896
1652,3.870622158,0.490028232,6.616149902,-14.29545593,67.55021667,-1.708434224
1653,4.431050777,0.913133323,6.641260147,-16.36556816,63.1870842,2.779397249
1654,4.729473114,0.542466283,7.189038277,-15.33174801,56.87112808,8.064750671
1655,4.941556931,-0.121202305,6.840597153,-10.88125324,50.56097031,10.80597019
1656,5.722043991,-0.235576183,6.809408188,-9.349908829,38.73071289,11.62738419
1657,6.466004372,-0.011928686,7.553036213,-8.965230942,24.39357376,17.13870049
1658,8.374875069,0.702291131,7.947230339,-12.26843929,14.19168282,19.97007561
1659,10.09865284,0.893299937,9.813165665,-6.911120892,5.338428974,16.92205429
1660,11.094697,-0.774855852,10.46626091,-7.704698563,-3.203764915,2.931009054
1661,13.16749001,-1.290992498,8.391298294,1.236950278,-27.8667469,-12.84118652
1662,14.50989437,0.969405711,7.624763012,4.292952061,-57.48149872,-12.64397907
1663,13.92698193,2.094687223,7.707641602,-24.4848156,-74.69931793,-6.17027235
1664,12.36804676,2.03660512,7.046570778,-36.78905487,-88.93022156,-7.670871258
1665,12.25466251,0.57922864,3.957323551,-40.46223068,-92.98020935,-14.03604794
1666,12.37478542,1.06584394,2.134114265,-28.12008476,-75.59620667,-16.54158783
1667,10.90746021,1.587548137,1.199212074,-28.16311455,-44.37640381,-11.61291599
1668,9.431436539,1.938077807,1.93655479,-32.02993393,-8.387602806,-3.078261375
1669,8.071683884,1.282570601,2.852945566,-79.02227783,64.91890717,7.70087862
1670,1.988955259,-1.983304501,3.276475191,-89.81665802,82.20539093,18.2317791
1671,0.162603363,-2.358803272,5.963166237,-45.29739761,54.90206909,13.37921333
1672,2.1793859,-1.896891713,6.616226673,-63.54523087,54.27909088,10.1909399
1673,7.010547161,-3.345752478,6.619749069,-47.9962616,45.4116745,14.20252609
1674,7.606035709,-1.333103299,9.56893158,-27.7226944,42.67217255,17.09131622
1675,7.806041718,-0.953124166,9.242297173,0.428446561,49.0527916,6.681354523
1676,7.052304268,-0.857074499,9.266124725,-1.23003459,48.56258392,5.252344131
1677,5.432446003,-0.521354437,9.716173172,1.04460609,54.94905853,4.661913872
1678,4.39116621,-1.801647425,9.03976059,9.76525116,58.47512817,-1.829486489
1679,3.907778263,-2.830910921,8.833277702,17.11773682,58.63528824,-6.201146126
1680,3.92917943,-2.455528259,8.667463303,23.65512276,52.32026672,-5.642556667
1681,4.082727909,-1.955274105,8.008667946,27.98593521,41.34609985,-6.429408073
1682,3.850165367,-1.494944692,7.267339706,35.09273911,28.2565403,-13.1936779
1683,3.477601767,-1.100785017,7.358086586,37.69919968,18.43062401,-15.87631035
1684,3.556254864,-0.368760258,7.804499626,36.55561447,16.05595398,-13.49660683
1685,4.180936337,0.014443513,7.955102921,32.86055756,15.95590115,-8.622788429
1686,4.900823593,-0.482633263,8.05906105,27.5524025,16.27005959,-2.452411652
1687,4.970304489,-1.163096786,8.352319717,30.66330147,17.60696793,-0.465628088
1688,4.041246891,-1.574282289,8.405020714,28.1752243,16.30744553,-5.775763035
1689,3.332529545,-1.033652902,8.800922394,26.13671494,13.01914024,-11.11003399
1690,3.67538023,-0.48819074,9.149338722,24.21596718,16.49936295,-16.84749985
1691,4.476206303,-0.053885419,9.517481804,27.69544983,20.66898918,-18.30548477
1692,4.265006065,0.409811646,9.610516548,31.57514191,21.92123413,-17.04949379
1693,4.035394669,1.001928806,9.882321358,27.72665024,19.21027184,-14.29599857
1694,4.239011765,1.040891051,9.925920486,20.32508659,18.15208626,-10.33612537
1695,4.412255764,0.696486354,9.871623039,15.72570324,14.44084072,-3.197430372
1696,4.321707726,0.465303242,9.875592232,11.30484676,10.64873791,-0.278730452
1697,4.241533279,0.222216725,9.859097481,4.922320366,4.789378166,-1.503043294
1698,4.403903484,0.22782445,9.472956657,-0.660308361,1.321199298,-3.627898455
1699,4.221308708,0.718215168,9.13270092,-3.957226753,-1.508229733,-3.900263786
1700,4.489168644,0.679128647,9.036273956,-5.60046196,-3.703584671,1.870527983
1701,4.8704319,0.066117235,8.833058357,-3.174938202,-1.401501656,6.012794018
1702,4.655842304,-0.177056387,8.304080963,10.14343452,0.168922246,6.480201244
1703,4.344051838,-0.309992909,7.958755016,15.28548527,-0.644211113,6.085076332
1704,3.709638596,-0.364593029,7.734121799,25.03158951,-10.00868607,1.177066565
1705,4.050774097,0.367565155,7.598403931,30.82120514,-15.68550014,-4.471023083
1706,4.129068375,1.227373481,8.477143288,33.08174515,-25.87526512,-5.086278915
1707,4.905565739,1.029087782,8.503151894,36.24560928,-41.18218231,-4.659845352
1708,5.002168655,-0.282002032,8.503224373,32.62690735,-53.43585205,-2.628412008
1709,5.286669731,-0.352831125,8.388140678,20.79250908,-63.67648697,-3.838136911
1710,6.257349491,0.79004842,8.163684845,17.23724747,-69.97798157,-4.8326931
1711,5.928937912,1.194224119,7.994226456,24.88513374,-70.9184494,1.587884545
1712,6.394124031,1.070516109,8.542141914,20.06873703,-74.26407623,7.922694206
1713,6.670136929,1.45955205,8.898056984,13.30033588,-82.20313263,12.97831249
1714,6.461229324,1.510011792,8.992212296,11.310956,-93.99339294,17.39794922
1715,6.439028263,0.936326146,9.253306389,7.829940319,-103.3212585,22.65961647
1716,6.509819508,0.641924739,8.356178284,-5.024428368,-101.4276505,20.83797073
1717,6.594094753,0.859322727,7.744752407,-13.146492,-97.91500092,17.70029068
1718,6.539298534,0.70374006,7.717739582,-17.79888916,-97.85443878,16.04647446
1719,5.892278194,0.831308961,7.549500465,-17.83829498,-93.66744995,14.72251606
1720,5.535459518,0.253750175,7.625184536,-12.72024822,-84.89937592,16.09378052
1721,5.449019432,-0.221077845,8.086139679,-11.94235897,-77.49881744,17.14222145
1722,4.938513756,-0.003012161,7.693709373,-15.47959805,-66.95589447,14.82949352
1723,4.198074341,-0.069318622,7.205295086,-15.42845631,-55.56223297,9.050784111
1724,3.614653111,-0.492771,6.913999081,-11.6174221,-41.78088379,4.849214554
1725,3.356285095,-0.098613411,6.506485939,-12.43650723,-24.12846565,4.12710619
1726,3.772788048,0.093816571,7.016060829,-21.40469551,-5.265505791,2.576520443
1727,3.725735903,0.079568505,7.011430264,-35.16689301,13.48517513,3.785352468
1728,3.433344126,0.264580846,6.98768568,-43.29854202,32.24591827,9.512573242
1729,4.032816887,-0.30834353,6.504320621,-38.41021729,49.80287552,7.895168781
1730,3.852219105,-1.050609708,6.281441689,-33.94584274,62.69669724,5.684169292
1731,3.303874493,-1.551710129,6.115671158,-29.73578644,79.90911865,1.726653695
1732,3.707847118,-1.411704779,6.095574379,-15.2379179,95.39426422,-0.067337997
1733,4.208224773,-0.633719683,6.35276556,-8.565722466,105.2240067,1.365383387
1734,4.848423004,-1.177370787,6.161185265,-4.04958725,108.5031128,1.891890287
1735,4.297036171,-0.212238744,6.178029537,0.098324835,108.5904236,-0.06219022
1736,3.999816179,0.713888884,6.438607216,3.021372318,104.9001083,0.395148873
1737,4.577583313,0.566311657,6.83612442,6.029054165,100.4239044,5.326383114
1738,5.024224281,-0.174054071,7.343141556,3.399252892,94.04532623,14.42934322
1739,5.005486488,-0.544483721,7.741288185,2.146726131,92.69242096,20.14928627
1740,5.69614172,-0.96937573,8.422784805,-0.122739397,84.83032227,22.8125
1741,6.889037609,-1.036575198,8.96548748,-5.043602467,56.74610901,20.09447861
1742,6.791772842,-1.473176241,9.373846054,-26.2304821,32.3710022,16.98847961
1743,8.035552979,-1.502829432,9.152537346,-33.96088409,10.59229374,11.21792507
1744,10.5100069,-0.955159485,10.81577969,-11.21714306,10.45953751,3.995194197
1745,12.33289909,-0.893994451,11.98651886,12.98471737,28.67697334,-15.94898415
1746,14.01755428,-0.238987938,10.41475582,23.29092407,30.73464966,-28.52988243
1747,14.04152393,0.533997595,8.157066345,4.755970955,30.95514107,-14.12273312
1748,11.23539257,-0.296025097,6.445118904,-13.85582352,42.31764221,-0.274544448
1749,9.676677704,-0.403971255,5.505914688,-12.01345158,58.14692307,-2.95110631
1750,11.98745346,-1.320019484,4.088550091,-12.96624565,62.29323959,-10.04032421
1751,13.2719059,-0.974180877,3.475509644,-12.01163483,56.06014252,-15.85650826
1752,10.44423771,0.331837237,3.149946451,-26.02478218,45.13500214,-22.09976959
1753,6.600560188,1.942389369,3.839309216,-47.71457672,35.62201309,-13.07683659
1754,1.41523242,0.956657767,4.52277422,-81.21154785,22.12469482,1.60534811
1755,-2.316106796,-2.536165953,6.11849308,-28.89331627,21.24866676,3.671308756
1756,-4.13291502,-4.075869083,7.091569901,-13.5975523,25.63734436,-2.927348137
1757,-0.975662708,-4.016728878,8.966050148,11.41052914,20.98556519,-11.19542599
1758,4.077767849,-1.869372606,10.35054016,32.55855942,19.23915482,-10.50618172
1759,5.484446526,1.234943032,11.04692078,42.35995102,18.26852036,-9.042441368
1760,5.926823139,1.075427175,10.19385529,22.82284927,13.27973652,-0.203032359
1761,4.118139267,-0.877661586,10.22745323,22.29924202,16.93390274,-0.40072462
1762,1.323746324,-2.519613028,11.04406357,33.63110733,24.36012459,0.815929472
1763,0.621928871,-2.448960543,11.04437065,40.45808029,25.97221184,2.956286669
1764,2.219464779,-1.255810261,10.02877426,37.90222549,20.18616104,4.298357964
1765,3.043997765,-0.690573096,9.629158974,25.52903366,10.46945572,3.519342184
1766,2.936727285,-0.226675749,9.513967514,18.06864548,1.382338047,2.886343002
1767,2.102390051,0.038222209,9.19184494,19.97712326,-4.077125072,5.79907608
1768,1.93255651,0.464931548,9.15105629,21.68388939,-7.79106617,4.130344391
1769,2.717116356,0.696870089,8.844701767,19.65359497,-7.512317657,0.06309057
1770,3.103284597,0.011530199,8.9969244,11.85960293,-5.898544788,-3.840370893
1771,3.486618757,-0.589564204,9.108394623,8.427816391,-0.236815095,-5.545547962
1772,3.419932842,-0.76552844,9.272278786,11.52372932,3.633682013,-4.211127281
1773,3.08077383,-0.580018997,9.383457184,11.63565731,3.93511796,-0.834859073
1774,2.652271271,-0.334732771,9.614949226,12.07727432,4.27278471,4.244354248
1775,2.392620087,-0.138255388,9.654673576,14.02641678,6.466578484,6.687437057
1776,2.314072847,-0.010905309,9.732686996,15.86679554,4.577064991,4.556318283
1777,2.933951855,-0.1025213,9.780898094,14.19268036,1.391391873,1.339615703
1778,3.047182798,0.54004252,10.06651783,13.28162003,-0.363073051,-1.605955601
1779,3.038443804,1.358283997,10.13737011,3.603905916,1.533925653,-0.465702951
1780,2.770305157,1.408423901,9.520968437,-10.53697968,3.912988424,2.987934113
1781,2.741266012,0.475026608,9.299196243,-17.07429123,-2.758427143,7.232670307
1782,3.192885637,-0.629080713,9.027111053,-15.56119823,-10.20919895,10.3601408
1783,3.410718679,-0.929336429,8.877624512,-9.084403992,-16.5986042,10.77064991
1784,3.385834455,-0.073413841,8.90458107,-5.478103161,-16.53210258,11.05639839
1785,3.368241072,0.29591918,8.895591736,-7.109915257,-14.68922234,8.672030449
1786,3.396658897,-0.48552224,9.081404686,-7.718137741,-14.59934139,3.502264261
1787,3.900236368,-0.550750732,9.00539875,-2.76194787,-16.75016785,-1.060866117
1788,4.300273418,-0.434548855,8.884422302,-3.286548138,-17.51459694,-2.343320847
1789,4.020829201,-1.027575135,8.860593796,1.221093178,-16.47795868,-3.530176163
1790,4.076072216,-1.216194034,8.90856266,11.24495792,-15.61786461,-5.266478062
1791,4.122303009,-1.375630617,8.910414696,15.85972691,-14.60033035,-7.247817993
1792,4.25342226,-1.365850449,9.931943893,17.84239006,-20.20810699,-8.81439209
1793,3.894732237,-1.222482681,10.81797314,8.274332047,-29.68552589,-5.801360607
1794,3.731080055,-0.302271336,10.5230732,0.51597774,-43.10573578,-7.488666534
1795,4.49567318,0.457510471,8.695936203,-11.76753998,-51.62940598,-9.429013252
1796,4.647138596,0.19843109,7.119542122,-1.721111059,-66.89269257,-9.432642937
1797,5.029988766,-0.070165858,6.668001652,25.77567482,-66.12147522,-9.712882996
1798,4.748232841,0.13352108,7.563726902,58.43168259,-50.57309341,-6.976445675
1799,4.76743412,0.012256645,8.613634109,82.04788971,-45.6451416,-0.075060345
1800,4.81852293,-0.239424437,8.870393753,68.58953094,-54.59447861,4.714638233
1801,4.831543446,0.702597499,8.289510727,52.66759109,-64.78028107,7.529070377
1802,4.410476208,1.387320995,8.10264492,41.19289017,-71.2654953,8.882871628
1803,4.372103214,1.540318966,8.417118073,35.92603302,-75.64805603,11.16568089
1804,4.252887249,1.52884388,8.10495472,21.33140945,-81.58267212,12.81514931
1805,4.051031113,1.233404279,8.42348671,11.99771023,-95.31264496,11.60391426
1806,3.621989489,0.764290452,8.953454971,6.753682137,-109.2597351,7.045410633
1807,3.206372261,0.45340088,9.258065224,4.714203358,-107.5668259,5.65192318
1808,3.456355095,0.201532558,8.820338249,0.985650539,-91.32846832,2.795497179
1809,3.342921019,0.621571541,7.777017593,-4.818421841,-75.45491028,0.087526754
1810,3.342353821,1.23337388,7.452965736,-9.078195572,-60.78636932,-2.345398903
1811,4.103500843,1.29916811,7.112121582,-10.68396759,-40.08663177,-4.323680401
1812,4.726576328,0.487923145,6.698043823,-20.65729332,-15.94405937,-2.943930626
1813,4.04524231,-0.391741693,6.622732162,-25.29974556,1.565458059,-0.253617525
1814,3.142732859,-0.921044111,6.98439312,-26.72003555,13.68021393,0.766520083
1815,3.027209759,-1.395240664,7.289707661,-23.18224525,27.36966705,-3.594963074
1816,3.042303324,-1.112624168,7.311988354,-11.13129234,38.59346771,-8.070864677
1817,2.69460535,-0.234687209,6.977503777,-8.846220016,52.32185364,-11.25939655
1818,3.098126411,1.175030828,6.89321804,-7.156908512,63.17314529,-11.12646198
1819,3.668370724,1.746630192,6.816936493,-7.843067169,69.72650146,-9.051827431
1820,3.629173279,1.358290315,6.765667915,-12.7940855,70.81185913,-4.210690022
1821,3.508146048,0.699400544,6.475057125,-15.53394222,70.92380524,2.286494493
1822,3.965945244,0.036539651,6.643145084,-7.823090553,70.83808899,6.757205486
1823,4.264872074,-0.085067108,7.345318317,-9.717877388,70.13916016,10.62482071
1824,4.932787418,0.045691267,8.056613922,-15.37885571,67.59185028,15.46104336
1825,5.164638996,-0.293098748,8.519791603,-22.67532158,56.85615158,16.56183434
1826,5.69600296,0.109855756,8.895287514,-24.84334755,32.07183838,12.08457565
1827,6.51475811,0.520710707,8.629480362,-27.67722321,11.23631763,16.50955963
1828,7.50856638,0.739337802,7.768247604,-31.30029869,6.869633198,17.77856827
1829,10.55461121,-0.209728718,8.644854546,-31.18204689,15.78974152,9.152949333
1830,14.10764408,-1.541758537,10.69538021,0.38896203,28.02477646,-8.124065399
1831,17.05238533,-1.33291328,10.55850315,18.43778038,20.11487961,-13.87609768
1832,17.18808556,0.249572679,7.311411381,9.228727341,-9.497885704,-4.966420174
1833,13.43013954,0.798679411,5.19950676,5.901211739,-5.532933235,0.906350315
1834,10.02549458,-0.785104632,4.730127335,-1.020631552,32.9813385,2.445567369
1835,9.735899925,-0.972560048,5.292536736,7.818118095,71.74040222,1.670945406
1836,10.87569714,-0.076320887,4.000346661,2.819813251,96.39298248,-0.614276588
1837,9.194688797,0.969211578,1.79927659,-2.813910484,105.9340591,-7.354506016
1838,4.027013302,1.665308118,2.607238054,-6.851579189,65.39904022,-5.41181612
1839,2.572222471,0.349153548,3.779493809,16.1289463,16.59757996,-2.287654161
1840,-0.942281365,-2.479922771,8.71421814,23.00929642,22.33256721,0.974073648
1841,-0.79418546,-3.066859007,9.082245827,25.39528656,20.51014137,-12.45650768
1842,1.07291019,-0.770005167,9.504515648,31.19203949,18.68023491,-21.58292007
1843,3.920113087,1.333707929,11.2709198,44.07541275,24.97732925,-17.76239586
1844,5.83489418,3.285024166,11.41382122,46.03456497,29.37425995,-13.73259544
1845,6.62304163,1.927002788,10.78110409,41.09011078,27.95397758,-3.963330746
1846,5.686254501,-1.048292637,10.39513206,36.25343704,19.96599388,-2.293758869
1847,2.197977543,-1.616326094,9.863419533,32.78937912,18.07260704,-4.10026741
1848,0.577347696,-0.734423637,9.296490669,23.64962769,16.93719864,-4.908483505
1849,1.574469447,0.582787454,8.972345352,17.64749336,13.17091179,-4.957154751
1850,2.446042538,1.591778278,8.775425911,3.152200222,8.082388878,1.790475249
1851,3.106762409,1.81443727,8.50583744,-4.469468594,0.775623143,5.848834038
1852,3.331258774,1.602795839,8.818883896,-0.28935951,-4.517620087,4.409053802
1853,3.055365086,1.585434914,8.946149826,5.81551218,-3.636133194,-1.691770315
1854,3.148388863,1.918987989,9.081535339,11.54833317,-0.148003086,-9.397357941
1855,3.360877752,2.207852364,9.270996094,11.59843445,1.725061893,-12.22510719
1856,3.083462954,2.19998455,9.395198822,5.253350735,-0.578155577,-6.184865952
1857,2.512061119,1.323071957,9.492272377,-3.02127409,-3.399356127,0.114277467
1858,2.507378101,0.20926559,9.607601166,-2.032995462,-1.249579549,1.291770101
1859,2.898831367,-0.095997766,9.887829781,6.3116045,2.837151051,-0.292471468
1860,3.168437481,-0.000500215,9.903697968,14.00327492,6.263174534,-2.761435509
1861,3.431079388,0.806638837,9.983107567,17.76642227,8.183159828,-2.443467855
1862,3.446727037,1.50051868,10.10554504,15.19028664,7.465475559,-0.491188049
1863,3.236854315,1.582048416,10.12501717,10.84339142,3.751295328,0.295256972
1864,3.564289808,1.708997965,10.03829384,6.161192894,0.78865993,2.739105463
1865,2.883824825,1.885916352,9.942087173,2.088158846,-1.191067457,4.619897366
1866,3.236857891,1.482702851,9.314676285,-0.601808786,-3.156854868,2.521179438
1867,3.363451242,0.894843459,9.314926147,-2.361952543,-6.681240082,-0.206528038
1868,3.365770817,0.970228612,9.237751007,-8.070462227,-6.516615391,0.727099955
1869,3.733627558,1.141669631,9.208525658,-14.18011093,-4.011182308,0.505921602
1870,4.430524826,1.224212766,9.174844742,-19.15820885,-7.244985104,0.639838099
1871,4.036056995,1.193723321,8.538162231,-26.57502747,-9.040678978,2.8081007
1872,3.462510109,1.102905154,8.196476936,-26.92363358,-16.23683357,9.109120369
1873,3.551716805,1.250593543,8.427852631,-24.16390991,-19.96912003,11.31276989
1874,3.861989498,1.353752732,9.156163216,-29.20257378,-18.53943253,11.67288208
1875,4.119070053,0.203908354,9.59394455,-20.65418053,-12.38541985,6.352072239
1876,4.554399967,-1.541332245,9.579646111,-26.26437187,-8.665901184,4.427929401
1877,4.337120533,-2.527225494,8.87802124,-40.11611176,-17.45083237,-1.882558942
1878,4.653815269,-1.030553579,8.500159264,-52.96387863,-24.68034363,-11.10839081
1879,4.460321426,0.784301996,8.214092255,-62.4058876,-35.23065948,-17.80416298
1880,4.766178131,1.726645708,8.419463158,-48.11722183,-41.49864197,-16.65019608
1881,5.169014931,0.844697773,8.240605354,-8.97490406,-35.38460922,-14.63457203
1882,4.741736412,-0.211149022,9.521027565,7.78804493,-46.32907486,-7.508345127
1883,4.126272202,-0.178860739,10.08159828,24.3402729,-70.11073303,-6.873033524
1884,4.630507469,-0.762680411,9.757616997,39.21520615,-92.66113281,-4.42881155
1885,4.968921661,-0.498494536,8.878446579,19.32402611,-95.19687653,-6.126890182
1886,4.449668407,0.148186907,8.396053314,7.511460304,-91.1477356,-9.771611214
1887,4.603323936,0.552074611,8.084890366,7.275914669,-92.61358643,-9.533493042
1888,4.849050999,0.632533073,8.495094299,12.55670738,-96.69004822,-3.846336603
1889,4.90232563,0.289687157,8.234869957,18.88161278,-103.0580139,3.15070796
1890,4.412853718,-0.11004477,7.539019585,25.55674553,-100.6311646,9.523171425
1891,3.673214436,-0.31782943,7.607377529,23.59708977,-89.45520782,10.0268898
1892,3.82469368,-0.153031603,7.751944542,17.12338257,-79.7148056,7.869309425
1893,3.953574657,0.457177371,7.594759464,11.1088419,-70.04088593,6.158164978
1894,3.891581059,0.701988518,7.66009903,8.194513321,-60.54500198,5.828189373
1895,3.862952709,0.607218385,7.710656166,5.213478565,-49.32859039,5.385059834
1896,3.927451849,0.456964582,7.875988483,0.493808925,-37.17133331,6.163233757
1897,4.139872074,0.258185655,7.812861919,-11.51935196,-23.2158165,6.340625286
1898,3.790582418,0.422931939,7.581973553,-31.24856949,-6.206709862,2.031100988
1899,3.6532197,0.281505227,6.245958805,-48.09958649,16.71175385,-0.238904655
1900,4.080366135,-0.677266836,5.847161293,-45.01210785,34.2590332,3.143156052
1901,4.518242836,-1.857014298,6.361879826,-33.08168411,50.98669052,8.419589043
1902,4.16125679,-1.893315077,6.934130192,-26.61666679,68.45137024,8.74905014
1903,2.82749176,-0.834086835,7.502047539,-17.3895874,82.58087921,1.38171792
1904,2.805639267,0.672506154,7.799918175,-10.9317131,96.73221588,-4.765210152
1905,3.119403839,0.845777392,7.416566372,-6.327775955,108.0987244,0.260754436
1906,3.159208536,-0.009256465,7.179407597,-0.807628393,109.7623367,7.536159992
1907,2.777403593,-0.567361057,7.222500324,6.360570431,107.740097,12.41243649
1908,3.448384762,-0.478717178,7.580974102,15.98767853,102.4425049,17.07176781
1909,4.308068752,-1.149596572,7.942007065,25.0636425,97.92805481,21.90132713
1910,5.036567211,-1.658555269,7.537333488,34.09183502,91.65894318,23.16410828
1911,5.247947216,-1.527808547,8.218624115,39.30480957,77.91836548,25.11663818
1912,5.300398827,-1.225898743,9.499875069,28.33437347,43.13399124,19.65786552
1913,6.070622921,0.099702746,9.779737473,5.220843792,18.00376892,11.97820282
1914,7.787499905,2.077931643,9.712144852,-9.02721405,0.735923827,11.50580311
1915,9.631591797,4.07009697,10.26675701,-21.28304863,-0.023794252,14.45661449
1916,11.02381802,1.126149416,10.44803047,-22.49633789,-0.250070035,-1.722751498
1917,13.58360291,-2.058421612,10.04631233,23.63418388,-22.52341461,-24.51800156
1918,13.67959785,-2.413738251,9.421196938,52.39748764,-40.12177277,-20.21733093
1919,11.43257332,-2.256356478,7.516579628,47.01883316,-19.9336338,-18.19045448
1920,10.64263153,-0.436003864,5.828347683,33.22999573,28.97091675,-31.91221428
1921,11.34186649,-0.751551569,4.323598385,32.17074966,58.62469101,-32.00843048
1922,11.02938557,-0.688752592,2.557065964,33.43421555,60.11883926,-20.58102417
1923,9.2692976,1.412142873,-1.194741249,-13.04484177,0.778390646,-19.06027794
1924,7.41642046,3.621369362,0.524801552,21.28985786,-29.55990219,-23.58472633
1925,6.075944424,1.428816915,2.133925438,1.595395803,-45.87488937,-12.78441143
1926,3.073344946,0.538414299,6.880410671,-3.812797308,-32.12645721,-2.054607153
1927,-2.826116562,-0.307458073,11.1627655,-5.203978539,10.87620258,-2.829116583
1928,-4.661548615,-0.247341037,10.28988934,-6.035300732,23.61434174,-6.693343639
1929,1.202243447,-0.47562322,10.10926723,8.547758102,15.64787674,-7.358141422
1930,9.341529846,1.232251883,9.610984802,23.37401962,10.88001156,-5.061772346
1931,11.43975449,2.797455788,9.981536865,7.553859711,7.007169247,-2.652413607
1932,7.108513355,2.021256924,11.07156467,5.784673691,5.201127052,3.195857048
1933,2.557785273,0.595689297,11.63349056,-6.130572796,13.83242893,9.454957962
1934,0.775136292,-0.054386195,10.46207714,-17.5790081,16.51817322,7.401362896
1935,2.02071023,-0.455187231,8.597942352,-13.100317,6.909178257,6.099419117
1936,3.062037468,-0.955931664,7.618096828,-6.798713207,-0.910249949,5.130577564
1937,3.50184536,-0.086312711,7.70310688,1.578939915,-7.58900547,2.397253036
1938,4.057260513,1.367805481,8.373207092,4.65725565,-10.2937746,2.195912361
1939,4.332447529,1.677049875,9.002788544,-0.964318573,-8.859564781,6.595138073
1940,4.520870686,0.895136297,9.029410362,-9.810746193,-5.807106972,10.03168774
1941,4.619566441,-0.242647797,8.917185783,-9.596763611,-4.073843002,7.279626846
1942,4.298695087,-0.419902086,8.906601906,-2.464915514,-7.895539284,0.424588263
1943,3.510570765,-0.115063563,9.12983799,7.92837286,-13.12326527,-4.69254446
1944,3.544814348,0.456617475,10.32904434,15.70364475,-8.752087593,-5.00579071
1945,4.083761215,0.964069545,10.85511971,18.29100227,-1.905599713,-0.360857695
1946,4.383321285,0.988544524,10.36776352,23.85650253,-4.341963291,-0.938476741
1947,3.965626717,0.809129059,9.151813507,21.1743145,-17.68520737,-2.814369678
1948,3.483030558,1.326202631,8.706555367,13.39839745,-31.11393356,-1.412674308
1949,3.910288811,0.733682871,9.021903992,-0.460607618,-31.74622154,2.514913559
1950,5.012706757,-0.264140517,9.207424164,-0.909393787,-25.56513214,1.014053941
1951,5.418070316,0.123357326,8.821690559,3.762890816,-22.42143822,-4.503412724
1952,5.144310951,0.70421344,8.535282135,0.210005417,-24.23773766,-7.57836628
1953,5.496488571,1.070014238,8.221618652,-1.771825433,-21.49403381,-5.579211235
1954,5.316905975,1.134741545,8.273477554,-3.563702822,-15.22732639,-0.535433948
1955,5.455787182,0.945365787,8.652558327,-6.955430508,-16.9846077,2.944714546
1956,5.572282791,0.592785418,9.648181915,-7.677535057,-19.78364182,5.191107273
1957,5.549588203,0.375872403,9.896961212,-9.795249939,-20.78547478,4.064826488
1958,5.836597919,-0.064061023,9.566734314,-12.51987648,-23.25636292,0.979387105
1959,6.041303635,-1.079940915,9.019446373,-2.657248497,-28.16055489,-3.604984999
1960,5.423418999,-0.931940675,8.848022461,6.620248795,-32.4449501,-4.878674984
1961,5.50154686,0.144693941,8.561457634,2.136209488,-42.81415176,-5.502323151
1962,5.920944691,0.193308532,7.210882187,-2.53643465,-49.60841751,-2.15076828
1963,6.572659016,0.336186469,7.193133354,-21.99129486,-51.4436264,2.87534523
1964,6.65680027,1.008069396,6.449435234,-35.99512863,-58.37242126,2.000967264
1965,7.1653409,1.605043292,6.47698164,-21.10024834,-56.13776779,0.510281861
1966,7.526517868,1.233961225,6.463959694,1.857428312,-47.12680435,2.491206408
1967,7.055952072,0.331581742,7.1667943,38.2555275,-35.44691086,5.239710808
1968,6.532159328,0.489633203,7.626708508,58.53004456,-34.72587204,10.88070679
1969,6.235749245,0.247164503,8.15903759,45.24327087,-47.66991425,13.76524448
1970,5.998921871,0.61724335,7.884304047,26.90115547,-50.60368729,11.34372616
1971,5.430676937,1.107424855,7.23707056,20.45879555,-41.85802078,7.519288063
1972,5.1720891,1.319107175,6.641927242,24.58634377,-33.9744873,8.590380669
1973,5.711711884,1.18502593,6.32976675,18.42006683,-35.69679642,8.826296806
1974,5.542806625,0.72079289,6.838686943,12.00501537,-48.14783096,7.35986805
1975,4.565979004,0.445821434,7.335222244,6.81986475,-56.85685349,6.082440853
1976,4.00343132,0.875763476,7.447638035,0.75917536,-56.24359131,5.222353935
1977,3.516435623,1.540683627,7.412073135,-3.539542437,-52.15395737,4.373532295
1978,3.531841516,1.488144636,6.963358402,-7.690067291,-45.19592667,5.750997543
1979,3.763953447,0.829016089,6.791563988,-6.537138462,-37.97125244,7.836548328
1980,3.915716887,0.191050962,7.057793617,-6.86170578,-30.73426628,6.861546516
1981,4.273952007,0.050117347,7.170762062,-6.451209545,-20.06596947,6.328184128
1982,4.587955952,-0.136399209,7.191981792,-10.05168533,-7.189284801,7.253514767
1983,3.839454174,-0.197304815,7.018930435,-7.716805935,14.43227673,8.629484177
1984,4.001331329,-0.473165512,6.509631634,-9.122397423,32.61050797,6.947582245
1985,3.991244316,-0.316251546,6.381465435,-14.39454746,46.14452362,2.972051859
1986,4.200716972,-0.590497375,6.757324696,-17.40599442,57.39059067,-0.746581197
1987,3.576011658,-0.490365922,6.693140984,-21.30241966,67.5630188,-1.201218486
1988,2.969811678,-0.638044059,6.814083576,-18.72071648,81.01364136,-1.572466135
1989,3.425314426,-0.19464612,7.265792847,-21.75429535,85.65142822,-4.701699257
1990,3.771192074,0.289045215,7.45704031,-27.90350533,83.11759949,-5.527588844
1991,3.824883699,0.095208652,7.545464516,-23.83672905,79.13828278,-5.579528332
1992,4.224408627,0.050204683,8.017804146,-10.08590698,79.11247253,-6.224091053
1993,4.052685261,-0.117402919,8.600813866,-14.38155556,73.10282898,-3.648113728
1994,5.044710159,-0.020557113,8.605705261,-16.89092064,69.70038605,2.165778637
1995,6.228213787,-0.045353971,8.494060516,-24.071661,57.02725601,9.118496895
1996,6.272038937,-0.058861107,8.446196556,-36.70542526,33.24729919,16.45764351
1997,6.439469814,-0.419847667,8.490046501,-41.66430664,7.950175285,22.17807961
1998,8.104227066,-0.21426858,7.589674473,-34.26112366,-9.365200043,22.72726631
1999,11.5105648,0.4128066,9.598463058,-21.15400314,-4.974421024,16.07257843
2000,14.09627247,0.251207769,11.64659023,-15.79603481,1.778848529,-5.131535053
2001,17.18668175,0.031158227,8.952339172,4.144977093,-40.12176895,-18.92858315
2002,16.87524986,-1.15949297,6.990951538,5.219886303,-81.84442139,-12.92053699
2003,13.63539505,-0.465428621,5.128136158,10.71014595,-93.70888519,-13.61677361
2004,11.42861843,0.657464683,3.391791105,-2.56409502,-60.00562286,-7.47146225
2005,12.22384548,0.459066391,2.616692781,-7.068846226,-17.2896328,-7.655595303
2006,13.21599865,-0.938215852,2.222676039,-22.9461689,21.2788105,-9.280374527
2007,11.52568531,0.112663716,2.538125992,-27.99833488,38.16584778,-7.384034157
2008,7.016870022,2.581853628,4.569117546,-61.62401581,57.03850555,-4.44618082
2009,2.784632444,2.083741426,4.772222042,-97.77509308,41.97288513,-1.876128078
2010,-2.173342228,-2.376506329,3.30387044,-73.78368378,45.0353775,3.659363985
2011,-0.569725454,-7.336251736,5.723727226,-38.87839508,51.4333992,6.943712234
2012,5.03214407,-6.388097286,7.165013313,0.719510257,41.60574341,10.9729557
2013,8.595641136,-0.337186456,7.312889099,25.15610695,36.7990036,-0.375766516
2014,8.311120033,2.029110909,8.768980026,17.90268898,44.73209763,-6.057581902
