PacketCounter,Acc_X,Acc_Y,Acc_Z,Gyr_X,Gyr_Y,Gyr_Z
799,0.034802169,0.684111178,11.09084511,-3.206748962,2.068334341,-6.864896297
800,-0.107159607,0.652593136,11.12983704,-3.322620153,-1.496063471,-4.570740223
801,-0.018467998,0.494305879,11.1019268,-4.148169518,-2.487697601,-2.276969194
802,0.162307277,0.220639884,10.58629417,-4.325012207,-3.356275558,-1.535532713
803,0.217923805,0.001240392,10.33456135,-1.852003217,-0.126078516,-3.137453318
804,-0.127758399,-0.186972678,10.53665352,-1.881047726,4.019560814,-4.127998829
805,-0.314578831,-0.146169752,10.75365067,-1.612857461,8.263496399,-3.540162086
806,-0.229590058,0.006580716,10.91956806,-2.939872026,11.56721306,-3.501289845
807,-0.266944289,0.122828379,10.84923744,-7.829754829,15.68539143,-3.850175858
808,-0.615140259,0.203873158,10.71440887,-7.407445431,16.91305542,-4.154743671
809,-0.832932174,0.137379259,10.88866234,-6.438959599,11.96269417,-4.371808529
810,-0.888569474,0.02943819,11.18267155,-3.17714119,8.528473854,-4.047832489
811,-0.89481169,0.068328165,11.25496292,1.960370779,3.453450203,-2.628023386
812,-1.01450181,0.142602608,10.7160387,10.0113554,-3.422683716,-0.364769787
813,-1.25767827,0.208521754,10.32319927,18.43012428,-7.484527588,2.511808872
814,-1.605913997,0.203630716,10.12507248,14.62606621,-10.38058376,4.066398621
815,-1.467157602,0.241488799,9.151319504,15.57343292,-11.33708,5.253152847
816,-1.278333426,0.037702136,9.209611893,9.545160294,-4.702673435,7.285325527
817,-1.11103332,0.092369772,9.346884727,7.816539288,-0.314556122,9.988868713
818,-0.788847148,0.045766413,9.547311783,6.508902073,2.130740881,13.25814819
819,-0.312243491,-0.000257751,9.574774742,1.844417095,4.394637108,16.34809303
820,0.250122309,0.04689353,9.757610321,-3.898566246,7.271744728,19.57866669
821,0.765605688,-0.01011711,9.836169243,-7.916134834,8.772644997,21.62809563
822,1.077271461,-0.110404953,9.885071754,-7.867275715,8.216615677,20.45118523
823,1.626839042,0.280854523,9.669416428,-2.515900612,8.769907951,18.18156433
824,2.252261162,0.774227023,10.55490208,-6.362221241,14.19888783,20.00978088
825,3.002163172,0.826577187,11.16174316,-22.04797554,19.06336975,22.96531868
826,3.654907942,0.275174141,11.18908119,-35.61346054,23.88996315,20.67555618
827,3.506809235,-1.108909249,10.42382813,-32.88700867,28.81668091,5.917758942
828,3.443765163,-2.312361002,10.0139761,-7.534857273,23.8999958,-16.32269096
829,3.557186127,-2.146874428,9.614364624,43.35895157,11.22806931,-27.51517105
830,4.736663342,-1.681131601,10.60040188,72.16639709,21.33750343,-18.48111916
831,5.328438759,-0.515205503,11.88027,67.29930878,60.74614716,-10.64934158
832,6.238604069,1.121572495,12.38052559,55.68181229,84.36838531,-9.098191261
833,6.580098152,2.148487568,11.87861729,26.71253777,93.96369934,-12.50765991
834,5.86898613,2.141146183,10.75693035,-1.163799524,105.3663483,-25.13739395
835,3.89640069,1.564508677,9.431225777,-15.71391201,75.61553955,-27.65322304
836,1.796827674,1.871835232,1.334025979,14.2906456,-8.011442184,-15.23663235
837,-0.738763988,1.73961401,0.018591043,48.43244934,-4.059505939,4.653257847
838,-1.279678822,0.418467641,6.342626572,69.65023041,-14.04656887,25.66295052
839,-2.016749859,0.389348,7.052248955,7.551599026,-4.121603012,-0.920142949
840,-3.44633913,2.18218112,6.774871826,-40.59641266,32.37828064,-26.16327858
841,-3.582381725,2.544210672,7.535162449,-54.82147598,28.64307213,-15.23132229
842,-2.68789649,3.000872135,12.12984467,-81.69361877,9.683693886,-0.050637513
843,-1.64698565,-2.487779379,15.96794987,-137.6183014,-11.71838379,-11.37223053
844,0.03687124,-2.757421732,10.5224905,-117.6072769,-42.17224503,-11.0888834
845,-0.333838433,-3.535562992,10.32688332,-18.43852615,-35.50611877,2.247744799
846,-0.563134134,-1.611941099,10.00976086,51.97188568,-28.31165504,16.99931717
847,-0.128093272,1.651090503,10.33483028,59.39412308,-49.96520996,6.068378925
848,0.698123276,2.202814579,10.13091183,18.6175766,-60.77532578,-8.285385132
849,0.389993489,0.931511819,9.517481804,-28.70446777,-49.38801193,-14.15191269
850,0.060628355,-1.458767176,9.049568176,-21.20041275,-43.97066498,-1.411566138
851,0.048306804,-2.964325905,10.6750536,20.57993889,-39.54741287,9.79231739
852,0.190988392,-1.532245398,11.55622005,38.33287811,-36.27371597,-2.021528006
853,0.555628717,0.704757094,12.01852798,24.19853592,-31.68330383,-7.877306938
854,0.490898699,1.68944788,10.66776085,7.247988701,-18.75234032,3.09051609
855,0.22757785,1.71327877,10.59389591,-5.355029583,-3.825656414,11.8621006
856,0.201171815,1.254292607,11.39540672,-11.09972,-6.236537457,19.43877602
857,0.154331088,-0.015780946,11.57773781,-19.47755432,-24.86699486,21.21357346
858,0.097806655,-1.04792428,10.7032032,-2.17824316,-33.31865311,19.13478661
859,0.326680064,-1.364514589,11.18584251,18.8493309,-33.60473251,15.17223549
860,0.312660366,-0.867636025,12.13637733,19.82083321,-32.50652313,12.95867729
861,0.50509578,-0.380444109,11.9968729,17.26694489,-26.53716278,10.78147888
862,1.040915251,-0.087722577,11.49754906,16.82061005,-20.80194283,8.30602932
863,1.118972301,0.51519078,11.35752487,21.93366623,-18.47010803,3.956264257
864,0.953139782,0.659804165,11.4415741,23.54183388,-20.42635155,2.020061255
865,0.768103182,0.6956985,11.46690559,16.295784,-21.62519264,4.204893112
866,0.973704159,0.776350617,11.58755016,10.31311607,-26.02891159,5.762264729
867,1.314168215,0.912168443,11.12037563,8.85814476,-23.4575386,3.781352043
868,1.392582297,1.182404637,10.7523613,10.45678139,-15.39767456,-1.347261786
869,1.344819069,1.495825529,10.914011,4.965959549,-10.72013092,-0.907644093
870,1.301071763,1.237073421,11.28667927,-8.939918518,-7.646092892,3.602773666
871,1.521660686,1.021990538,11.374506,-22.94849205,-5.491541386,7.0299263
872,1.816091657,0.928650498,11.30860329,-33.52890778,-4.986224651,7.653587341
873,1.581942081,0.621048629,11.21149445,-35.32027817,-4.331076145,8.226074219
874,1.191261292,0.141897231,11.20811462,-30.61397362,-3.497875452,8.337188721
875,1.010308266,-0.070023179,11.42371273,-29.56309128,-6.190232754,6.675780296
876,1.412351727,0.169727862,11.52837849,-30.38495445,-13.22331333,3.811126947
877,1.793629408,0.325545043,11.39644527,-26.75011826,-24.69516563,1.295310855
878,2.171289206,-0.149825022,11.50269699,-17.88959503,-30.73198891,0.996671379
879,2.327082396,-0.54427278,11.47540474,-12.27317429,-28.42029381,3.244365454
880,2.131944895,-0.534355342,10.74645329,-0.112439886,-18.42230225,3.711483479
881,1.97782743,-0.846771717,10.48814774,7.645508289,-16.80290985,1.176065922
882,1.983351588,-0.748479903,10.27466583,-0.435134441,-13.41938591,-2.76685214
883,1.939964175,-0.385153621,10.15576649,-11.34270191,-9.745019913,-5.9765172
884,2.314053059,-0.16145651,10.27097893,-15.12287426,-15.31119061,-8.473752022
885,2.55015707,-0.239120975,10.34905434,-21.62901878,-22.21803474,-9.710144043
886,2.677468061,-0.11138764,10.43719482,-27.57709122,-30.41514778,-8.773780823
887,2.584532738,-0.074565507,10.44130707,-23.14289856,-42.45357895,-6.230449677
888,2.364413738,-0.247650281,10.26677895,-7.453392982,-60.17876816,-3.32964325
889,2.785776377,-0.055441707,9.489106178,5.844076633,-79.00162506,-4.364846706
890,3.043034077,-0.043903574,9.234623909,31.7073307,-98.20827484,-3.437520266
891,3.411473513,-0.412213147,9.296614647,53.91492844,-107.1142197,3.700768471
892,4.019419193,-0.480262041,8.320148468,51.23768997,-110.2017822,6.669939041
893,4.77821207,-0.467763096,8.295463562,44.6277504,-107.8297653,2.202650547
894,5.412041187,-0.460461736,8.835000992,38.84711456,-108.7956848,-3.263710976
895,5.322004795,0.167049184,9.364180565,36.175354,-108.8203201,-2.506005287
896,5.013943672,0.520947576,9.68799305,34.88811111,-119.0035782,4.161566257
897,4.548235416,0.617461264,9.449255943,29.58683586,-125.7318878,5.922472
898,4.354794025,0.785113573,8.902749062,19.11119652,-127.5357132,4.09712553
899,4.279892445,0.954781234,8.367203712,18.45040131,-112.6481476,3.675354719
900,4.052981853,0.875103951,7.983245373,15.30498695,-91.24341583,6.986550331
901,3.812182665,1.074747205,6.982989311,6.806348801,-78.13898468,13.57142925
902,3.337419987,1.186208844,6.88336277,-0.063033953,-68.29678345,18.08463287
903,2.826466084,0.724855423,7.716869831,-3.122759581,-67.16300964,15.98880577
904,2.277598381,0.208626062,8.518065453,0.090504065,-69.98530579,7.61167717
905,1.777488232,0.153625369,8.500276566,5.078848362,-58.48093414,0.58516115
906,1.516496539,0.290621281,8.481866837,16.2821331,-45.85350037,-3.929519653
907,2.282698154,0.058350764,8.235349655,23.99682045,-33.77498627,-7.785143852
908,3.653607845,0.28689754,8.254031181,12.28373528,-19.24794197,-14.65979767
909,3.213220358,1.382081747,7.976240635,16.89493752,-18.21714973,-14.22926712
910,2.734020472,1.430642128,7.602893353,23.74895477,-11.85447598,-10.99204254
911,4.412119389,0.685963511,6.889362335,9.327575684,9.467011452,-14.74473953
912,5.95163393,0.779140353,6.89880228,-7.718509197,28.8449955,-17.93075562
913,6.459769249,1.379929543,6.637746811,-14.38690758,44.18405533,-18.40960884
914,6.281843185,0.658817232,6.57065773,-34.46515656,59.23923492,-12.83231068
915,5.049943447,-0.434489995,5.91586256,-46.49684143,82.5847168,-9.044285774
916,3.956418514,-0.750332832,5.342998505,-40.00817108,107.406517,-4.232450962
917,3.945841551,-1.122082353,5.362145424,-13.62101364,126.8065643,-0.894139409
918,4.712675095,-1.080001593,6.812075615,8.076986313,147.0270081,-7.0038414
919,5.006950378,-0.096231036,8.267475128,12.85334778,154.5548401,-14.76517391
920,4.873113632,1.184601068,7.808944225,15.32435989,168.6802216,-18.2209053
921,5.42019558,1.210102439,9.812086105,-2.446311951,164.4146881,-15.55452442
922,5.82319355,0.988411427,9.71848011,-37.85142136,169.5127106,-9.909976959
923,5.727729321,0.971993625,9.970297813,-53.68544388,173.9473267,-3.768497467
924,5.195263863,0.956715703,10.43049145,-48.44521332,153.9666138,2.944526911
925,4.533254147,0.491786331,11.21955395,-39.45058441,136.9799805,10.03625774
926,4.75356245,0.065213099,12.42075253,-36.36209106,129.9100342,17.83995438
927,6.112004757,-1.08648479,13.28530407,-28.64850426,146.2056122,17.08504677
928,9.047195435,-2.327053547,13.13262177,-42.33730698,103.0896225,0.529143095
929,8.958163261,-0.995142162,10.24302387,27.67106628,104.0230713,-2.323173285
930,8.750621796,0.417929143,9.036615372,53.23358154,108.5483932,7.837808609
931,8.40945816,1.052753091,7.492661953,73.38259888,96.50591278,21.33973694
932,7.612375736,0.439489543,5.668181896,105.831192,78.24597168,32.44970322
933,4.808802605,-0.200759739,5.309121609,113.8229599,63.10214996,17.16806984
934,2.966482639,-0.139792591,1.087733984,109.1073456,56.84636688,2.702764273
935,0.237243563,1.462220073,2.94776845,139.3460083,45.43215561,2.576711178
936,-2.963822842,1.14895165,5.206059456,35.14379883,66.747612,-4.976699352
937,-7.993272305,1.705836177,7.098125935,-105.0280762,99.60074615,-32.16819
938,-15.93541145,3.431894302,7.460801125,-105.8091583,44.78512192,-34.81426239
939,-8.869091988,5.093047619,10.88098431,-66.86843109,-38.74183655,17.84464455
940,-3.107513428,1.445753574,15.69643211,-104.6861191,-38.02182007,9.264341354
941,1.354402304,-0.801086903,15.12805176,-126.7974243,-38.19386673,-14.69798183
942,2.202498913,-2.124510527,9.917794228,-55.88096619,-25.14997482,-13.79314709
943,1.141727805,-0.282879919,10.3464632,29.96242523,-4.494159698,2.348941803
944,-0.98176676,1.526901841,11.16085625,44.99027252,-5.639723301,11.64272785
945,-1.404741406,0.810979784,12.25588703,21.43873978,-16.72813416,12.2569685
946,-1.068177819,0.520811796,11.51857758,-11.82657623,-28.71218872,1.208058953
947,-1.307796597,-0.694422662,10.59824085,-44.7550087,-36.3488884,-1.434058905
948,-2.25865531,-2.585129738,11.03408337,-32.5719986,-40.89827347,13.85760593
949,-1.853284359,-1.24113059,10.73698807,-1.272730827,-25.95244408,12.26865959
950,-0.038952012,0.418290704,11.13430023,21.37812805,0.396395683,8.551750183
951,0.495240867,1.883305907,11.95893002,19.71196365,9.193078995,-1.110984564
952,-0.195120111,3.234182835,11.13242722,18.03311348,-4.48927021,-18.39717865
953,0.131902471,2.515691519,10.88471985,27.33147049,-28.96850967,-7.274618626
954,-0.623896778,-0.029192574,12.96298504,28.01102066,-19.57728386,3.082526922
955,-1.403818488,-1.259356737,13.83717823,23.1639576,-11.60770321,0.824455619
956,-1.768776178,-1.219848037,13.04787731,18.72223663,-23.85807991,-0.857791185
957,-0.977690637,0.03221624,12.36197853,21.22463989,-18.01407433,-3.503660202
958,0.050353363,0.943880558,12.0038681,21.14651871,-9.748173714,-2.130288839
959,0.192547187,1.40896678,11.58500385,7.631649494,-2.062437296,1.313854814
960,0.139468372,1.180481434,11.47467518,-11.08515739,-4.990701675,5.734129906
961,-0.355889589,1.111901402,11.82601547,-22.97539711,-15.59763908,3.535529137
962,-0.70720011,0.715938032,12.57558441,-21.40636635,-24.93802643,-1.618395686
963,-0.415985316,0.279187322,12.98953247,-14.1165638,-30.3956356,-2.544535637
964,0.180602193,0.385556608,12.33727455,0.820523679,-23.64945602,-0.971107423
965,0.58394599,0.123184294,12.32353687,-1.179908633,-21.2336235,-0.674056888
966,0.628865242,0.685802221,11.35179806,-8.457605362,-27.67466545,-1.82611382
967,0.251954198,1.169156075,11.0237627,-14.36594009,-26.56685829,-4.202839375
968,0.500952601,1.28984797,10.92342472,-12.14549923,-30.64916039,-4.917170525
969,0.973676145,1.256121993,11.00273514,-10.42869186,-32.63096237,-6.370802402
970,1.316242337,0.752013564,11.3375082,-10.94212151,-35.70668411,-8.505701065
971,1.786776423,-0.036551744,11.72846508,-11.21024418,-41.82815933,-10.92115307
972,2.030219316,-0.485473335,12.27982616,-9.003582954,-47.3901825,-13.7502861
973,1.569795609,0.482309699,12.26360321,14.02139282,-68.954216,-11.44303703
974,1.197330952,1.016508102,11.87701988,43.74746323,-109.9618759,1.824834943
975,2.194964886,1.142580152,9.743884087,44.85766602,-151.5272369,10.17581844
976,3.697019339,0.870197296,9.343986511,36.13690567,-168.6799622,15.99818707
977,4.247868538,0.435372472,8.678635597,17.76079941,-169.1677704,17.27316093
978,5.263485432,0.620080411,8.057854652,22.49078369,-156.6819458,20.75162697
979,5.32818222,0.82970643,9.273057938,20.35410309,-144.966568,20.08087158
980,5.210187435,0.605776429,10.29779243,6.820149422,-149.3118744,16.11648369
981,5.297285557,0.5265944,10.14122009,0.189800009,-155.5957642,13.44248867
982,5.036796093,0.837870359,10.35178661,-6.049899101,-158.1470184,13.19211578
983,4.463495731,0.684694588,9.954257965,-17.83693886,-154.6046143,13.9696846
984,4.070334911,0.369752347,8.767609596,-24.85988617,-133.029129,13.68385601
985,4.187186241,0.37366116,8.265221596,-27.92310143,-104.0642853,9.005329132
986,4.310322285,0.188511789,8.431686401,-39.77296829,-84.70922852,6.981527805
987,3.355325937,-0.484079093,8.154623985,-45.06721497,-65.70874786,6.467793941
988,2.961622477,-0.46277228,8.614914894,-41.71130371,-60.61499405,1.535363317
989,2.534823656,-0.185817599,9.118816376,-34.77780914,-55.89107513,0.716263592
990,1.947528839,0.636007726,8.818510056,-35.26473236,-39.52793121,1.626582623
991,1.786115766,0.633061588,8.957080841,-32.67411804,-32.25812531,3.765152454
992,2.98217845,0.566914618,9.208697319,-25.53522873,-37.68381882,-1.906047106
993,3.764858246,1.281874418,8.883304596,-28.00372314,-29.78403473,-2.43179965
994,3.971771479,0.00321465,8.746822357,-19.95173454,-19.32114792,2.069723368
995,3.431213379,-1.227256894,7.927120209,-1.987852693,-4.549007416,0.844021738
996,4.37308836,-1.744475722,8.365709305,10.5885582,18.96523094,-6.125351906
997,5.575634956,-0.91928947,8.063159943,13.35801983,45.50848007,-7.844490051
998,6.244866371,0.938342512,6.639154434,28.65380859,39.36803436,-1.237865686
999,5.215790749,1.694966435,5.840442181,30.67100525,42.41777039,0.929647565
1000,4.017912388,1.047616243,4.906377792,8.261984825,45.9188652,-2.210674763
1001,3.724801064,-0.143672854,4.545516968,-14.3767786,67.54203033,-1.205225945
1002,4.72484684,-0.752747238,4.954041958,-24.76068497,103.8745804,2.441526413
1003,5.634789944,-1.405935287,5.780974388,-23.56983948,143.3686066,7.640530586
1004,6.03747654,-1.496908665,6.608919621,-17.14843941,173.5000153,5.031084538
1005,5.864658356,-0.963489354,8.1299963,-5.705891609,166.9279327,0.332645565
1006,6.31763649,-0.209783494,9.559810638,20.38935661,171.3188324,-3.013727427
1007,7.942652225,0.862563372,11.80731297,4.636623383,189.978363,-2.111344576
1008,8.245903015,1.48544693,12.71757889,-41.03292465,188.6085052,11.13065052
1009,6.309463978,-0.241169617,9.733492851,-68.81269836,145.8013611,29.99229622
1010,4.165851593,-1.231352806,7.663825989,-28.51762962,108.8780899,28.05434608
1011,4.605448723,0.012764852,8.84577179,38.96763229,72.41425323,8.299298286
1012,7.849467754,-0.193889692,12.63005161,12.65194798,72.5328598,-4.068962097
1013,10.32339287,-1.483201027,11.06379128,-48.69495773,96.34953308,-4.435968876
1014,11.77150345,-3.453923941,7.844704151,-22.98149681,129.8121796,7.366966248
1015,9.666819572,-2.891138554,6.423043728,55.35905457,117.5345917,16.88135338
1016,7.647995472,-0.834538817,5.244706631,96.62021637,98.38275146,10.15560722
1017,4.5138731,0.159509644,5.036499977,116.0708313,54.5848732,16.65504265
1018,1.942833662,-1.341400504,0.836925685,108.3090591,43.2773819,-0.661204338
1019,-0.540977001,0.774611712,2.504235029,115.7167511,1.737804174,-21.03598785
1020,-1.943725944,1.571846604,3.614838839,9.8169384,57.8873291,-21.60614777
1021,-3.145256281,3.504245996,4.421738625,-121.5890045,189.2357788,-36.1028862
1022,-7.207395077,3.977981091,9.144093513,-109.5050278,230.6591034,-29.1978302
1023,-9.108201027,1.773184299,16.31620789,-112.216713,7.020180225,40.91800308
1024,-7.21564436,-5.172362328,17.00101852,-117.6330414,4.920735359,7.61387682
1025,-2.078772783,-3.931809425,13.6031847,-59.47299194,-4.951198578,-13.36980629
1026,0.702577531,-1.957753897,10.73956585,23.39279556,8.339021683,-11.17437363
1027,1.149414063,0.375882119,10.77427864,50.07376862,-18.27838135,7.628390789
1028,0.947431862,0.36749655,11.96123695,41.32184601,-27.47495461,-0.125669792
1029,0.664119363,0.180889845,11.03865147,19.46954918,-32.00336456,-9.081670761
1030,-0.496641397,-0.586071134,10.54561901,-3.360801458,-20.45990372,-5.410908699
1031,-2.240834475,-2.164146662,10.15772152,-17.98133087,-15.34242344,4.947968006
1032,-3.126499653,-2.503350258,10.28624153,6.463773727,-12.77358913,7.306790352
1033,-2.905929804,-0.75440222,10.07315445,32.28781509,-8.754878998,-2.66232276
1034,-1.100531816,0.661654651,10.57064629,32.10998917,-17.66123009,3.402848721
1035,0.056361914,0.934019268,10.72552395,23.95370674,-14.70964241,5.832861423
1036,-0.005481943,1.260609508,10.88800335,25.22302055,-20.43618774,-2.962997198
1037,0.231327176,0.998006344,11.51249123,37.07118225,-35.49670029,-1.476752281
1038,0.320650756,-0.209690928,12.66426468,47.67153931,-27.67085648,3.58941555
1039,0.198688969,-0.635310113,13.11151409,55.47426605,-5.709197521,5.453509808
1040,-0.819569051,-0.045206435,12.59273911,50.92324829,6.175451279,4.319961071
1041,-1.690373421,0.47223708,12.21044064,37.50007248,-3.641337395,-2.208619833
1042,-1.225430369,0.841853559,12.70632553,32.13710785,-9.706272125,-1.589626431
1043,-0.325415164,0.983474791,13.03493023,26.16379547,-11.35378265,1.605632544
1044,0.169689149,1.258782148,12.37723064,23.52618217,-13.46683693,2.345867395
1045,-0.096363842,1.600447536,11.40200138,21.90269089,-12.00631237,1.661941409
1046,-0.587945223,1.669003487,10.77630234,19.10449028,-12.57917404,1.054585576
1047,-0.712511241,1.91606164,10.7188015,9.248375893,-13.54691315,1.607332706
1048,-0.455864072,1.987622976,11.02663231,-6.9579072,-14.67589283,0.462296814
1049,-0.05113896,1.700551033,11.28881741,-15.89279366,-20.33690262,-0.760263503
1050,0.267747253,0.911711454,11.30609417,-13.20018101,-17.75196075,-2.915921211
1051,0.127429783,0.547401428,11.56020069,-7.309654236,-15.71625137,-0.167327955
1052,0.185903296,0.719634056,11.84727669,-9.411223412,-19.52815437,4.386034966
1053,0.243819952,0.838206649,11.12765598,-10.95945454,-13.77790451,3.529350281
1054,0.365154833,0.327682674,10.83116341,-15.51276207,-5.748743534,0.938334942
1055,0.842491806,0.052259259,10.95693111,-17.0031395,-9.738075256,0.911691606
1056,0.882455468,0.458764195,10.97751904,-19.40185738,-10.84606266,-1.430087566
1057,0.506029069,0.57835716,11.5035162,-19.36846924,-9.052209854,-3.06227231
1058,0.302688539,0.499307871,11.60912514,-19.44793129,-22.59945488,-1.345164061
1059,0.448829144,0.738464236,11.3080492,-20.49159622,-40.55988312,1.867819786
1060,0.805469394,0.708716869,11.0723629,-23.91485786,-56.01640701,3.27474165
1061,1.173467994,0.527893662,11.62275696,-21.09898376,-71.68115234,1.325585604
1062,1.126386166,1.064053655,12.14224625,8.218813896,-99.11628723,6.274088383
1063,1.264545918,0.776785791,9.840978622,33.96494293,-134.760498,17.91326332
1064,2.657208204,0.680914998,8.426334381,25.63502502,-158.8690186,15.51344967
1065,3.316586733,0.160637662,8.29650116,31.20378113,-157.960144,13.06560612
1066,4.572496414,-0.306382,7.686714172,26.48403549,-151.4753876,10.91247463
1067,5.538400173,-0.404169679,8.148675919,24.48532295,-138.6665955,7.546216011
1068,5.754826546,0.191587985,8.819509506,25.17973709,-133.5110168,6.668425083
1069,5.735113621,0.620943844,9.919523239,25.6153183,-141.2884674,10.35388947
1070,5.557140827,1.242294192,10.22426414,24.51802635,-159.7012482,15.0440464
1071,5.52757597,1.078392386,10.10759449,20.11475563,-165.6469421,19.16768265
1072,5.133858681,0.793107152,9.574422836,14.59915257,-146.7336578,18.12184906
1073,3.90939784,0.879428506,9.007090569,15.63301086,-120.9730453,20.56925583
1074,3.113192081,1.00864315,8.499567032,16.85328102,-100.946434,22.25794983
1075,3.705057383,0.848794043,8.769046783,9.837842941,-96.8861084,25.1409626
1076,4.042208672,1.722520828,8.515333176,-5.299863815,-86.37819672,21.28066635
1077,3.314665556,1.712486863,9.160360336,-0.590435326,-71.83818817,17.65950966
1078,2.229356527,1.495514154,9.616064072,-13.77069664,-73.06309509,19.50586319
1079,2.27259779,1.882978559,9.749380112,-25.03988075,-65.81800079,11.89606953
1080,3.37516737,2.35461688,9.374128342,-25.51899529,-48.54811859,5.046516895
1081,3.314934254,1.826472521,9.11404705,-15.24162197,-39.11448288,-2.794311523
1082,4.035840511,1.090061784,8.386301994,-3.199165344,-29.91019058,-7.819302082
1083,4.224609852,0.194936082,8.528634071,-2.359174728,-8.73099041,-9.940578461
1084,4.123010635,-0.464563787,8.414514542,-11.11384392,20.86297035,-18.9052639
1085,4.397844791,0.229921237,9.146042824,-27.8131752,38.72504044,-21.72049522
1086,5.031180382,1.170180082,8.542265892,-13.4178381,38.71517563,-13.96109867
1087,5.339235306,1.420433879,8.296060562,71.60267639,12.68752956,0.349703074
1088,5.805251122,-0.248589262,6.177928448,72.10166931,34.9413681,8.674803734
1089,6.022420883,-0.550560057,4.201594353,-11.45981121,78.52670288,1.19335413
1090,6.007484913,-0.547320962,4.239886284,-42.45373154,98.06367493,-2.412557125
1091,5.228198528,-0.133057296,4.472917557,-21.68185043,134.4763947,-7.994677544
1092,4.57623291,0.156145141,6.893712044,-4.294615269,161.3735962,-12.04112148
1093,4.246818066,-0.106477141,6.39191246,-14.98326683,171.3440399,-13.8400135
1094,4.614568233,0.340066195,7.759151936,5.126205921,189.3517456,-9.391804695
1095,5.296586514,0.34494403,9.098814964,4.580084801,184.912796,-8.429414749
1096,6.867537022,0.437804818,10.08059216,-7.879507065,179.5544739,-10.60709667
1097,6.974167347,1.018721342,11.08926296,-12.2917757,175.9013214,-13.98466778
1098,6.291872501,1.153209329,11.16114998,-30.75638008,173.0417633,-12.78941154
1099,5.239458561,1.004759312,10.48355293,-37.67862701,159.5548859,-0.930206895
1100,5.057188034,0.918979585,11.2885046,-25.64733505,143.4407349,0.084496208
1101,7.353549957,0.782831669,14.17959118,-39.38596344,115.6189728,-11.12677193
1102,8.477458,0.617464244,12.37050247,-61.56979752,100.5712204,-6.568366528
1103,8.162687302,0.287593067,9.809362411,-56.37955475,107.1343384,-6.998571396
1104,7.569171906,-1.094192743,6.447788239,-2.643180847,79.78688049,0.492786586
1105,7.672590733,-1.808300018,4.758102894,74.85064697,69.08263397,12.81152534
1106,6.433897972,-1.192701578,5.23101902,113.7353745,66.43803406,25.54485703
1107,2.550323248,-1.620836735,5.893350124,85.67977142,63.52043915,24.71132278
1108,1.121598601,0.293650061,-0.79293263,107.5988693,19.82717133,-13.14190102
1109,-0.577976167,1.759525537,2.258207083,118.3314819,68.7547226,-24.88822365
1110,-2.807006598,2.034302235,6.236174583,-35.30659485,145.4383545,-21.4985199
1111,-8.704153061,4.181066036,9.496326447,-150.5991058,126.911087,2.819127083
1112,-14.33114815,4.178665161,7.831460476,-91.29669189,27.36533737,31.78271103
1113,-8.423802376,0.438735962,16.45942688,-92.45116425,-21.92926025,29.32082367
1114,-0.669329524,-2.687775612,14.24852848,-88.47692871,-49.76184464,-1.394258738
1115,1.47840035,-1.778337836,11.95277405,-35.59128571,-0.73451966,-26.05727959
1116,2.001060963,0.749063909,9.657405853,21.73827934,4.180258751,-14.2728014
1117,-0.328703552,1.293783903,10.91656113,40.70309067,-11.4644146,-3.346455097
1118,0.343039989,1.308306575,10.90114117,30.82769966,-30.93766403,-1.647592664
1119,-1.057005644,0.274939656,11.07513428,12.65531158,-35.21828461,2.994971991
1120,-2.014822721,-0.797492683,10.33875942,-4.086085796,-32.00759125,-1.045719147
1121,-2.021922112,-3.050610542,9.740452766,-2.007426262,-26.6877079,1.925010562
1122,-2.277079821,-2.344822407,10.80761242,8.501729965,-17.16604996,2.694171429
1123,-1.132128596,0.299742609,11.10390949,26.36904716,-15.00287914,7.756927967
1124,-0.021371933,1.549186468,10.7481966,36.31040573,0.411937535,11.94401264
1125,-0.705631733,2.146787167,10.69093323,36.28807831,7.579819679,-0.282029182
1126,-0.762656331,3.269705057,10.32678699,44.65619659,-13.73252487,-14.0669775
1127,-0.166772559,3.045096397,10.90535736,63.97703552,-33.99285507,-13.38392067
1128,-0.135037959,1.776780128,12.58951378,64.19554901,-39.74866486,-4.267776966
1129,-0.614199996,0.954977036,13.18702221,49.12670517,-33.63697433,3.791501284
1130,-0.688702583,1.097845793,12.8180275,31.34906578,-16.5740757,3.207345247
1131,-0.40752399,1.598832846,12.66763687,16.2553215,6.471707821,0.049432561
1132,-0.543696463,2.061925411,12.59323883,3.7535429,10.46805668,-2.873957872
1133,-0.387872159,2.386717319,12.2577486,-2.499191999,-4.245927334,-4.992652893
1134,-0.028131371,2.343310356,11.75248814,-6.162811279,-14.4743576,-3.257355452
1135,-0.150019288,1.845436335,11.56267452,-5.482604027,-18.84830093,-0.42000398
1136,-0.418772846,1.41914165,11.36326694,-3.478772163,-18.37598228,-1.772067904
1137,-0.281264693,1.164526224,11.24109459,-5.883913517,-12.53775215,-3.642979622
1138,0.010679291,1.194984794,11.16783142,-19.60250282,-10.29864597,-2.956920624
1139,0.368596613,1.504919291,10.98255539,-32.8423996,-10.29023361,-3.124717236
1140,0.660596132,1.700332284,11.254282,-38.68882751,-8.802371025,-3.352560759
1141,0.371178746,1.405198455,11.78727913,-40.51883316,-10.90423775,-2.090751648
1142,0.007290728,1.057457209,11.94411373,-34.20726776,-13.86850929,0.12735334
1143,0.089611217,0.756347179,11.66899014,-25.63264465,-14.04100609,1.529978991
1144,0.337777168,0.719269872,11.30321312,-17.43531609,-8.992617607,-0.752591729
1145,0.617613077,0.375778824,11.45242405,-20.94062805,-4.68893671,-3.022136688
1146,0.944943607,0.361563653,11.55767727,-24.67972946,-4.899534702,-4.313771725
1147,0.293732703,0.917311728,14.04321289,-7.472204685,-20.60365486,-4.938963413
1148,-1.32825768,1.068660975,14.10127926,44.03646088,-80.70333099,3.908537865
1149,0.063733935,-0.201112047,8.621975899,-1.620920897,-130.761734,3.928591251
1150,1.603177071,-0.230843991,9.001895905,-39.69002914,-122.7970886,-8.359455109
1151,2.196324348,0.058280982,9.964682579,-46.26353455,-123.7977676,-4.044327736
1152,2.666129112,-0.139341936,8.248555183,-60.27284622,-124.383255,4.52429533
1153,3.476657867,-0.522067487,8.013845444,-42.52776337,-119.3879929,1.500585794
1154,4.266019344,-0.773126364,8.403676033,-16.03165817,-122.2770157,-13.33899117
1155,4.851480484,-0.395098656,8.284872055,14.22372913,-124.0661926,-18.6834259
1156,5.32626152,0.353996873,8.529156685,39.15021515,-115.9040909,-9.805490494
1157,6.10141325,1.065622807,8.676570892,39.42366409,-110.9346619,-2.770462751
1158,6.360136032,0.968854129,8.932659149,38.20361328,-107.8160248,1.335872889
1159,5.861379147,0.84029007,9.448524475,40.74539185,-112.4795074,6.332695007
1160,5.534060955,0.958613157,10.10019302,36.53631592,-123.6819687,9.43456459
1161,5.181923389,1.487841606,10.84102726,22.177742,-145.0950012,13.91919231
1162,5.343625546,0.911572337,12.04613686,5.093689442,-169.5265198,25.71529388
1163,4.508941174,0.747404218,10.55474091,-15.66582775,-169.3807678,29.38926888
1164,3.404209852,0.00684255,9.284560204,-28.46598434,-143.0986938,16.79768562
1165,5.481698513,-0.250239581,9.605195045,-34.60434723,-115.3728104,8.070035934
1166,5.020093918,0.263080269,9.981751442,-32.67033386,-99.07811737,15.67701435
1167,3.115940571,0.687704921,9.237910271,-15.0452795,-76.47145081,19.55988503
1168,2.524996758,1.121227264,8.960792542,4.718595028,-64.40631866,20.0013237
1169,2.773420811,0.943077862,9.294182777,11.94114971,-60.59691238,16.24465752
1170,2.922454119,0.751744449,9.021573067,2.54230547,-60.27769852,9.790769577
1171,4.216647625,0.578872561,8.982651711,3.803925037,-59.88549423,2.562154293
1172,5.234377384,0.728962123,9.189864159,-2.79933238,-55.48366928,-5.411062241
1173,3.77825737,-0.072407052,7.746213436,-57.33283997,-7.865382195,-4.849169254
1174,3.308806896,-0.124372087,7.84930563,-34.30505753,-25.9324646,-1.577086687
1175,4.067878246,-0.834287703,8.265570641,-25.98662376,5.190036297,-8.856394768
1176,4.945466995,-0.403526217,7.669937134,0.326646656,36.10583115,-4.014808655
1177,6.302807808,0.00168485,7.119060516,18.91513062,48.65116119,4.559303284
1178,6.476913929,1.374331594,7.231864452,36.07197952,36.29561996,7.720463276
1179,5.297130585,1.49474144,6.754489422,26.80067062,40.56613922,4.701206207
1180,3.364484787,0.650536478,6.651385307,12.47228432,63.85651016,4.213589191
1181,3.72244668,-0.498892099,4.951446533,-23.95988464,95.80763245,8.035409927
1182,4.531900883,-0.915446281,4.465785027,-26.23257828,121.8038559,20.35679245
1183,5.68459034,-1.216427207,5.756018639,-19.45960426,139.9052277,24.03284454
1184,5.961521626,-0.879961073,4.938746929,9.687935829,169.1219177,16.55492783
1185,6.184484005,-0.541284382,6.692183971,26.20824814,170.3026886,7.631367683
1186,6.028441429,0.098994434,8.299964905,26.15800095,169.9363708,5.092060089
1187,6.350531578,0.199375018,9.635370255,13.53695583,170.2610168,6.950331211
1188,6.524713516,0.535273194,10.51404381,-6.930137634,178.738327,4.660474777
1189,6.916466236,0.600273132,11.20103168,-24.58181,184.2239075,9.254370689
1190,6.793118954,-0.10089162,10.16728783,-32.21438217,168.9703979,16.98459053
1191,7.148492813,-0.059375837,9.17508316,-15.48921108,137.1763763,18.2943325
1192,7.914644241,1.004925966,10.15061951,-16.34036636,98.54146576,8.387104034
1193,9.91938591,-0.01159953,10.57633018,-35.89433289,98.5932312,4.855620384
1194,10.97789001,-2.278888464,10.3119173,-23.76901627,128.6442108,4.598064899
1195,9.423683167,-3.111042738,9.277135849,51.11473846,132.7746887,10.31179714
1196,8.959337234,-2.391989231,9.030385971,66.17899323,116.7467346,13.8434763
1197,6.519506931,1.150434732,7.204376698,76.03261566,138.1458893,7.887458324
1198,3.234000921,2.694206953,4.174086571,101.2657928,95.51157379,15.33209801
1199,1.0408355,0.943535328,0.787274003,80.50470734,85.46380615,6.377020836
1200,-2.049535751,0.742564976,0.932118773,108.170517,77.44421387,-6.754312038
1201,-3.87632966,0.123021662,6.230448246,49.42082977,125.196785,-34.01100922
1202,-8.326674461,2.762742043,7.034267902,-83.43473816,77.82929993,-29.55337906
1203,-10.31863785,5.355196476,10.13776398,-92.36235809,-8.310616493,11.28859901
1204,-6.605569363,1.016104698,15.49839115,-141.9966736,-23.85361481,16.56004143
1205,-0.958360314,-5.529642582,15.23004532,-140.5956726,-42.76177597,-18.68239212
1206,0.078639142,-3.844210625,8.82610321,-27.48104858,-38.34961319,-17.76730728
1207,1.05966413,-1.162178397,8.248599052,71.35945892,-49.59872055,9.212846756
1208,-0.671079338,1.547125101,10.05492687,66.84788513,-38.67313766,23.11600685
1209,1.244315624,2.466491699,10.1446209,12.37828064,-44.18304443,0.524455965
1210,2.586655855,1.013049126,10.40218449,-47.92077255,-51.5778389,-24.8585968
1211,1.520304561,-1.482717633,10.60024357,-61.73645401,-31.05108261,-34.53549576
1212,-0.566710591,-4.272276402,10.94507217,-22.67653656,-13.15007114,-23.46154404
1213,-2.670505762,-3.522927761,11.98269844,-11.66821575,-11.08135128,-11.35566139
1214,-1.976183653,-1.680542111,12.28160572,-11.38495731,-12.83216572,1.213140011
1215,0.260646433,-0.374937326,11.52266979,4.39442873,-0.498397529,1.607895017
1216,0.756361187,1.327553988,10.5672636,14.83284378,-5.685955048,-7.736318111
1217,0.422531933,1.922050238,11.63431931,26.32282257,-19.56180382,-0.155155927
1218,-0.154119402,0.990070224,12.8688364,35.25943375,-38.33420944,9.617562294
1219,-0.329321027,-0.451723814,12.79940987,43.86686707,-40.65673828,15.70665836
1220,0.425370246,-1.55464232,12.21979332,35.72465515,-24.93107033,12.04199886
1221,0.610925317,-0.922386825,12.1404047,19.61865807,-15.14437199,5.883435249
1222,0.18640247,-0.033270221,12.69117928,20.1221981,-17.41477013,1.959395647
1223,-0.007448798,0.096900672,12.91629124,18.2346611,-10.99868011,-0.885720611
1224,0.527813077,0.268798709,12.60767174,14.5319519,0.384177983,-2.605805874
1225,1.038400173,0.464363456,11.81196594,16.37645531,-0.021264965,0.732664764
1226,0.705343246,0.601660132,11.51736546,21.27866364,-4.46701622,4.95977354
1227,0.298559338,0.921928227,11.52887249,18.52435303,-4.614415646,4.375531673
1228,0.329301,1.166165233,11.61916161,8.293797493,-5.177071095,-1.109247804
1229,0.670750439,1.153394103,11.50848579,-3.790827274,-0.116838738,-4.210760117
1230,1.02092278,1.047620058,11.15644646,-9.18765831,3.94421649,-3.935527802
1231,1.31814611,1.188524961,10.5749712,-4.253751278,6.882977962,-4.238973141
1232,0.75256443,1.213268518,10.72611713,-4.528169632,13.5266571,-8.694361687
1233,-0.099899843,0.833889365,11.70629311,-19.32205391,14.5958004,-11.67651367
1234,-0.202549294,0.620027006,12.32196426,-31.40290451,2.928452015,-11.16858101
1235,0.182974026,0.192359075,12.52453709,-31.78772736,-6.026807785,-9.763318062
1236,0.739307404,-0.590939641,12.44997787,-21.44483376,-10.59033775,-8.453094482
1237,1.324351907,-0.682469904,11.96900654,-0.568864882,-14.2451992,-7.3402915
1238,1.11813879,0.081775226,11.60052586,13.08561516,-12.42544079,-6.720371723
1239,0.681560576,0.871736288,11.2347784,13.71020794,-10.70378017,-10.30045605
1240,0.410227329,1.033723235,10.83642101,-3.48146081,-5.589938641,-16.11026382
1241,0.739279211,0.352370232,10.6863699,-25.04668999,-11.02559757,-13.10278225
1242,1.023391604,-0.220565245,10.53540802,-39.73908234,-19.69412994,-9.60529232
1243,1.118576288,-0.27815941,10.52581882,-43.82500458,-34.13821411,-9.383969307
1244,1.534655452,0.137044594,10.43986607,-25.77895546,-59.22158432,-10.54114246
1245,1.58263135,0.600715756,10.42726135,12.8706255,-70.76418304,-7.808534622
1246,1.661762476,0.573313653,10.37058449,38.04095078,-100.9278488,-0.55498594
1247,2.493992329,0.71674192,7.91855526,43.24574661,-147.8531494,1.336332917
1248,3.531644583,-0.14294605,8.098974228,45.85591507,-153.1528015,1.67737937
1249,4.344337463,-1.514720559,7.98319912,49.57155228,-146.1364441,6.79473114
1250,4.784125805,-1.109434247,8.181882858,47.61888504,-136.9356079,13.85918331
1251,5.138835907,-0.522394776,8.082309723,56.34545135,-136.0275421,15.61425972
1252,5.384143829,0.113686204,8.631883621,52.40966034,-131.4502716,6.129751682
1253,4.84125948,1.316268325,9.578783989,44.991642,-128.8171997,-2.705544472
1254,4.43767643,1.961924314,10.26321125,39.64485168,-143.9395905,6.86507082
1255,4.260209084,1.80149281,10.6348238,32.16367722,-151.299408,18.59218979
1256,4.120732307,1.717887163,10.61595726,12.6147728,-151.868988,20.50120926
1257,3.675073385,1.194347858,10.19338417,-4.235631466,-141.1578064,17.67182922
1258,3.342730045,0.00737239,10.00512218,-9.729924202,-124.0536118,19.29849052
1259,3.327981949,-0.385886282,8.828353882,-17.67683601,-111.0131302,19.25662994
1260,3.551918507,-0.132254347,8.061514854,-12.5406208,-98.73610687,17.32349586
1261,2.923999071,0.422663748,7.904093266,-5.37590456,-82.06689453,14.62221909
1262,1.987105012,1.212314963,8.274388313,-8.189677238,-73.04364014,8.450260162
1263,1.838459492,2.036221981,7.853149891,-7.651749134,-62.67512131,2.965486765
1264,3.185667992,1.694901943,7.588999748,-7.388478756,-52.80692673,-0.911488235
1265,4.671055317,0.73220253,7.392007828,-11.88710499,-43.79224777,-0.104116373
1266,4.739183426,-0.191881031,7.674880505,-14.45361614,-31.72470856,1.442276597
1267,4.141151428,-0.227498546,7.570010185,-18.38638115,-6.756165028,0.710849345
1268,5.139513016,-0.427896708,7.724349976,-10.79327297,17.59397316,-5.26913023
1269,6.453310966,0.228060365,7.566004276,-6.807328701,36.02829361,-12.29162502
1270,6.260010242,0.899167717,7.199862957,8.557015419,44.26247025,-8.864774704
1271,5.134349346,0.904946506,6.232172489,11.91851711,53.96632767,-1.671233773
1272,4.728036404,0.055970691,5.391170025,-29.33917046,73.91446686,2.661776066
1273,4.31698513,-1.098893285,5.193186283,-58.74470139,96.28029633,10.95961285
1274,4.237236023,-1.545082569,5.170802116,-40.09788895,119.8334885,17.94390488
1275,4.795053005,-1.238884091,6.551319599,-29.04234314,142.6598511,17.19155884
1276,5.023652077,-0.103744119,6.385818958,-26.00208473,162.0174103,11.998703
1277,5.810878754,0.339956522,8.25835228,-20.52309227,168.7803345,7.388679504
1278,6.343744755,0.050149992,9.819610596,-24.46772385,171.6165466,8.37356472
1279,6.842154503,-0.825882614,9.894881248,-17.32390976,176.2624359,12.59591293
1280,5.555491447,-0.760308683,10.00121021,-3.677448988,157.2816925,13.00065517
1281,4.627898693,-0.009449998,10.56984138,-0.226122215,127.7511597,19.53172112
1282,4.416712761,0.310334057,10.69450951,1.061572075,123.4923477,28.46549416
1283,4.985806465,-0.330902576,11.76472664,-6.589231014,105.2169113,26.92093086
1284,5.663216114,-0.765171766,11.46759796,-24.64538193,91.99668884,14.40970707
1285,7.093921185,-0.523371637,10.86807442,6.645928383,61.87485504,-6.894176483
1286,10.61661148,-0.699949145,11.91391945,31.1031456,81.34500122,-15.61954021
1287,11.53294468,0.705502629,10.7159462,17.55494308,125.0498886,-25.29352379
1288,9.029387474,0.657532632,6.075647354,79.73503876,121.3106918,-7.868517876
1289,7.380351543,-2.209570408,5.549151897,65.70547485,116.6924973,23.49869537
1290,5.896006584,-0.363966763,7.69849968,124.8159561,51.50861359,46.12846756
1291,3.390855312,1.466518879,5.412305355,154.246048,1.328645706,27.58446121
1292,1.271896601,2.929082155,4.1808815,127.8407059,-30.96710777,16.17211533
1293,0.331069857,0.986966372,3.42231226,50.36590576,-12.87125874,15.34971619
1294,-1.716224194,-0.180708617,3.53436327,-12.33221722,47.47832489,-12.94375038
1295,-5.433971405,0.450307697,6.400099754,-42.41834259,160.0882721,-32.62749481
1296,-6.064739704,3.877878904,7.89722538,-94.20741272,229.8916779,-64.91316223
1297,-7.251006603,5.182323456,16.50419807,-123.7879486,133.8851929,-48.01045609
1298,-5.204675674,-1.469352484,17.46360207,-135.9725647,-4.740247726,6.167589664
1299,-2.140473127,-4.823163033,12.30152225,-107.1849594,3.695941687,10.54209805
1300,0.198784471,0.282871425,10.30699825,13.25496006,6.317076206,-3.079480886
1301,1.453188658,2.119858027,10.99596405,45.20267868,-8.414212227,2.139470339
1302,0.553191364,1.872836232,11.54564953,-2.423436165,-27.62430763,8.562120438
1303,0.956041455,-0.772901773,11.78978443,-13.40755939,-36.56204224,6.197295666
1304,0.120982811,-2.622715712,11.96522522,-17.72619057,-22.3611412,-4.054565907
1305,-1.20926106,-2.966681719,11.12051868,-5.245064735,-13.26717663,-12.85741234
1306,-2.278434038,-1.862934709,10.34675217,24.56188393,-4.439025879,-12.28119469
1307,-2.100479126,0.558454037,10.64740658,54.09950638,0.040961534,-6.804366589
1308,-0.892319024,1.81961751,10.90898132,42.36146927,-4.619843006,-0.27029255
1309,-0.768508136,2.340369225,10.51842499,32.07706833,1.098141909,-2.286095381
1310,-0.284870416,2.921606541,10.10877609,34.23573685,-16.08265686,-7.649913788
1311,0.536924243,2.322233915,11.06099796,39.70614243,-28.04444504,-6.580733299
1312,0.004367698,1.11734736,12.18915749,39.12113953,-24.83771706,-7.148233414
1313,-0.857659996,0.42594108,12.01177979,43.20891953,-21.70782852,-7.163305283
1314,-1.1824857,0.796879113,11.07497978,46.85325241,-17.23571777,-4.875983238
1315,-1.157815337,1.343668103,11.58227158,43.84011841,-14.74699306,-3.214456081
1316,-0.685240507,2.18189764,11.85733795,30.60253906,-9.411132813,-0.813084483
1317,0.001437762,2.597831726,11.64002228,19.11215782,-4.076042652,0.581677973
1318,0.521999657,2.527868748,11.39418411,8.693938255,-5.826858997,-2.030991793
1319,0.41928196,2.463240623,11.212286,1.614420414,-10.81129932,-5.806677818
1320,-0.198747277,2.193633795,11.42437363,-0.209063724,-8.875315666,-6.75387907
1321,-0.394223452,1.940728307,11.52422619,-4.756528854,-1.102095604,-6.715069294
1322,-0.050637167,1.678070545,11.38415146,-11.20318031,-1.680334926,-4.878017902
1323,0.395890296,1.374633789,11.56868076,-14.86099815,-14.93947506,-1.811563373
1324,0.354755759,1.357252121,11.77334785,-16.40879631,-21.19737053,-3.292808533
1325,0.280258507,1.006727099,11.60672379,-14.69154453,-13.21694088,-4.931706905
1326,0.100071013,0.975392759,11.50489044,-17.48890114,-10.05112934,-1.46671319
1327,0.097115375,1.576155305,11.33361053,-23.02321243,-10.98301411,2.97884059
1328,0.47132802,1.588204861,11.0937233,-30.06947708,-12.07116318,6.069336414
1329,0.564158022,1.159102082,10.98957157,-37.64636612,-11.33341217,7.238912106
1330,0.919437945,0.75389421,10.83506966,-42.90065002,-12.20670033,6.890319347
1331,0.846887112,0.315356076,10.93224049,-45.32600021,-11.62002754,4.186363697
1332,0.478260726,0.558233857,11.23646832,-43.14573669,-16.29713631,0.389386386
1333,0.191552669,1.066380262,11.38761139,-36.4773674,-34.37335587,-0.449353188
1334,0.234656155,1.04062891,11.34130478,-26.53067398,-55.72608566,3.140351057
1335,0.927815676,0.367397398,11.17125893,-21.55743027,-83.41514587,4.997393131
1336,1.726881862,0.425117403,10.07378864,-22.37098122,-126.7537384,2.179754972
1337,2.485604525,0.38199383,8.769253731,-15.06645489,-150.2508087,-3.136021614
1338,3.524450302,0.244311184,8.460642815,12.73884392,-150.7486572,-2.365024328
1339,4.457234383,0.088722892,9.023885727,36.16492462,-147.4364319,0.927568734
1340,4.479016304,-0.249871939,9.653078079,42.09552383,-151.0868835,7.471227169
1341,4.707453251,0.203783229,8.92147541,31.90341377,-148.5751343,10.77910995
1342,5.597306728,0.554102302,9.319849968,22.78892517,-138.0397491,10.53315449
1343,5.724479675,0.54388231,9.509584427,19.28561783,-126.4070892,9.982981682
1344,4.917063236,0.588411868,10.38577652,14.71628094,-125.9278183,12.81759167
1345,3.823743105,1.003806472,11.40089512,6.182158947,-159.6392822,21.84451675
1346,3.99914813,0.722464263,11.38252354,1.251430631,-192.3861847,29.21236038
1347,4.621292114,0.318965524,10.56767273,-4.253702641,-168.1164398,22.94936943
1348,4.794116974,0.091697663,9.705060959,-5.859847546,-117.9072647,19.59844017
1349,4.013122559,0.379575461,8.401199341,-3.424222469,-78.01197052,22.63946533
1350,3.034044981,0.540964723,9.12575531,8.88253212,-62.61004257,19.00008965
1351,2.775013924,0.75461781,9.468840599,12.20096111,-53.13428879,12.01156616
1352,2.400742292,0.731679678,8.781114578,2.955830097,-38.35974121,6.835418701
1353,2.320702791,1.06485641,8.444317818,-17.88310242,-32.95486832,3.47193408
1354,2.965286016,1.326497555,8.059960365,-19.53812599,-40.67773438,7.213383198
1355,3.880172253,0.838610649,8.695223808,-19.91479683,-42.29276276,2.913794041
1356,4.041287422,0.48779422,8.711821556,-27.9611702,-28.47481537,-5.91024065
1357,3.674645424,0.278616488,8.746501923,-38.71247101,-5.972556591,-10.49652767
1358,3.598923206,-0.609484315,9.346595764,-42.61067581,1.584495068,-5.854563236
1359,4.099328995,-1.288231611,10.54759026,-19.32893944,-0.600221753,-11.34635544
1360,5.539079189,-0.567855656,9.638970375,1.552395344,20.05978584,-14.73478603
1361,5.867084026,0.700881541,6.027035713,35.27910995,23.99042892,-7.918782234
1362,5.224467278,1.059991241,6.043055534,21.03205872,25.77132416,-4.133380413
1363,5.0607934,0.919496119,4.786662102,-38.47079849,24.98491287,0.022667406
1364,5.363144398,-0.320684016,3.312178135,-48.29639053,83.10786438,9.702454567
1365,5.243171692,-1.443856359,3.876917839,-25.37542915,126.1818008,15.7612524
1366,4.878610611,-1.76730907,5.681456566,-7.394722939,148.3904724,13.16934681
1367,4.839320183,-1.127035975,5.362343311,13.25759411,172.3160706,6.434254169
1368,4.735862732,-0.445176184,7.377602577,11.82300282,165.6076813,3.11930871
1369,4.676308632,0.235247836,8.708883286,-9.067060471,146.4495697,9.176901817
1370,5.838523865,-0.296905726,9.599346161,-23.08345413,142.0744324,13.12116623
1371,7.501743793,-0.349863201,10.00691032,-28.43802261,157.3542023,15.26694679
1372,7.464376926,-0.268148333,10.80002308,-39.84228516,173.7920227,21.43621254
1373,6.681323051,-0.967957377,11.0267992,-47.53888321,175.1497345,28.45178413
1374,4.051457882,-1.456547856,10.88337135,-27.93468857,147.756073,24.64907455
1375,4.638061047,-0.654091001,11.35643673,-16.59716606,161.5894928,3.347487688
1376,6.216015339,0.233680546,14.60522079,-42.03834915,90.43914032,-10.17516041
1377,7.479729652,-0.106392339,12.59188366,-47.98952484,86.8815918,-8.073609352
1378,8.580989838,-1.842518568,10.00542164,-28.25329971,106.13694,2.554725647
1379,8.700372696,-2.878715277,6.646544456,35.06794357,78.39975739,14.3014946
1380,7.197971344,-1.769127369,6.332593918,120.6274567,52.01136017,26.84842491
1381,4.30648756,-1.068008542,4.150746346,148.9586639,-28.48844147,51.25248718
1382,2.861258268,-0.951221108,3.781894207,162.8763123,-140.710144,54.01171875
1383,1.187864304,2.598433495,5.152217388,156.9361877,-199.8008575,23.98989296
1384,0.449106693,3.916876793,3.141466379,-12.81516647,-76.18740845,-1.392265081
1385,1.831712365,3.530799866,0.299452126,-213.3973694,64.76907349,4.122004509
1386,-1.944390416,2.494006872,-1.635392427,-204.8359528,182.6370392,10.47131634
1387,-5.63627243,-0.284390897,12.05357742,-73.68528748,293.0749512,-8.867142677
1388,-5.096262932,-5.243505001,22.34502411,-128.8215027,408.9640503,-35.38969803
1389,-7.032105446,-11.85402203,18.77142525,-158.2471008,91.34187317,-29.69498253
1390,-6.813702106,-5.039684296,8.688370705,15.17137146,32.68896866,-9.211735725
1391,-1.232985616,0.738003492,10.5260849,171.2406006,-16.9195919,15.44165611
1392,1.334087968,1.345680475,10.83252525,111.6396942,-32.21871948,17.15185928
1393,1.102475047,2.095497131,10.68759346,48.69526291,-31.02000427,6.49171257
1394,0.352455229,-0.24182111,11.18419456,-18.40254402,-37.44061661,11.06257057
1395,-1.086750746,-2.426562786,10.78233624,-29.40767288,-43.67979813,12.66579533
1396,-1.767778754,-3.326755524,9.842032433,4.488664627,-18.34270287,8.645278931
1397,-1.937421679,-1.881503582,10.7547884,27.71269798,-13.0459547,5.888776302
1398,-2.18725872,-0.405783653,11.48375702,30.69901276,-19.48436737,7.784895897
1399,-1.235408783,0.249618292,11.64205837,13.27168655,-8.439776421,6.546823025
1400,-0.037409935,1.657323837,11.05737877,5.48067522,-15.47618771,3.746424437
1401,0.085278884,2.692789078,10.99228477,12.17411137,-21.16962242,-1.072232962
1402,-0.024318941,1.397441268,11.8122406,23.65935326,-27.13402557,-0.012729571
1403,-0.28480351,-0.63844943,12.74213505,32.17956543,-22.60135841,0.284296095
1404,-0.940825462,-1.970076561,12.70082951,42.68319702,-19.92645264,0.270491421
1405,-0.885171235,-1.704510093,12.14578438,44.70406723,-22.28186989,-1.288329959
1406,-0.85968107,-0.484080106,11.63191891,46.46306229,-15.17045307,-6.255595684
1407,-0.722931147,0.417499542,11.71937466,48.15943527,-9.017585754,-8.693172455
1408,0.070997357,0.820014954,12.08064461,42.01332855,-10.23977566,-5.046445847
1409,0.69498086,1.26216948,12.23918343,28.4669838,-15.78722286,1.232270122
1410,0.421375215,1.488434553,11.8281765,21.64942741,-18.5123806,3.32125926
1411,-0.08327423,1.673767686,10.70602036,25.81741142,-13.75554466,0.075948268
1412,-0.339883536,1.582257628,9.739346504,33.27243805,-7.371519089,-4.842498302
1413,-0.136830255,1.121511817,9.726955414,37.75649643,-8.181850433,-10.55894089
1414,0.493526757,0.06974522,10.59700394,38.44153214,-10.86209965,-11.80539513
1415,0.431783438,0.344291568,11.17485237,28.68218803,-2.541921377,-9.184006691
1416,0.118205562,0.880686581,11.59528446,17.28704071,-6.512422562,-7.764936447
1417,0.138925195,1.023267627,11.74013329,9.450856209,-22.18982506,-5.575716972
1418,0.297564089,1.952473283,12.37730885,-3.648345947,-34.28876877,-0.812329471
1419,0.135281086,2.205712557,11.94825554,3.071574688,-38.63460159,3.114616871
1420,0.472045422,2.120770216,11.17607498,6.506721497,-22.86787224,1.524272561
1421,1.169962883,1.258041501,10.85136127,4.451016903,-14.79275036,2.082148075
1422,1.134055734,0.354489625,11.57877445,-10.26647091,-14.93093395,-0.846174121
1423,0.908932567,0.973940313,11.37542057,-13.96399689,-16.83550453,-2.113198519
1424,0.873572826,1.691699743,11.33681965,-14.40369606,-28.210783,-0.658953011
1425,1.077830315,2.105552435,11.36678791,-12.89208603,-53.4406395,5.607390881
1426,1.543596864,1.95892179,11.09763241,-6.927796364,-77.21378326,12.88282013
1427,2.280917645,1.161525607,11.00646114,7.177040577,-98.44247437,15.6586771
1428,3.021653175,0.617594659,9.5307827,11.90413857,-128.526001,13.77017307
1429,3.622515202,0.424253941,9.310976982,3.403086185,-136.9474487,13.87500095
1430,3.570141554,0.921022773,9.260364532,-7.3010993,-132.7500305,16.59074211
1431,4.040329456,1.216113806,9.275993347,-13.00013542,-134.8049927,16.6620388
1432,4.704158783,0.833394706,9.034422874,-15.43121243,-139.598938,14.30522919
1433,5.249067307,0.383222193,8.954274178,-13.42494583,-150.5714111,9.833069801
1434,5.263867378,-0.009561361,9.165104866,-0.746009409,-157.3915558,5.841364384
1435,4.906380177,0.155947343,9.688041687,19.61375046,-169.8679199,9.49851799
1436,4.500736713,0.057290763,10.08887577,28.17341805,-175.2666931,16.51615524
1437,4.824336052,0.192375407,9.897823334,19.01577568,-165.2539978,17.93938637
1438,5.027739048,1.163203597,9.869551659,-12.91195679,-148.1919403,10.82304573
1439,4.715801716,2.19631052,9.39722538,-29.54223442,-131.1882324,5.959566593
1440,3.827535152,1.847357392,9.076152802,-33.44158173,-92.78804016,10.34726143
1441,3.150377989,0.923891068,8.985247612,-30.17759323,-72.57209778,15.71106434
1442,3.136011124,0.092264488,9.563299179,-25.32734299,-72.07814789,17.2707119
1443,2.76438427,0.007175632,10.51347446,-26.93651581,-68.05784607,15.78270245
1444,2.207773447,0.193778291,10.30552197,-5.669757843,-58.54485703,14.14213181
1445,2.844632864,0.360649437,8.552072525,21.48918343,-41.85531998,10.32710457
1446,3.968948841,0.636646986,8.058591843,35.17539215,-43.10027313,6.971335411
1447,4.018119812,0.604830682,8.164178848,24.48981667,-41.77447891,2.563077688
1448,3.885421038,0.667162061,8.120557785,8.04299736,-20.07689476,-6.737932682
1449,3.861941814,0.425629616,8.103462219,0.517728925,5.178319931,-10.05378342
1450,4.209887505,0.171633556,8.336081505,3.284715891,25.67867661,-9.997508049
1451,5.497220993,1.13220787,7.697328568,6.87535429,36.9835968,-7.252112389
1452,6.250914097,1.998246193,7.471447468,25.34473801,38.12792587,-5.433089733
1453,5.275323868,1.209550023,7.022874355,15.19213676,45.32359695,-6.551064968
1454,4.066355705,-0.581053913,5.086276054,-35.40082169,62.83572006,-6.769714832
1455,4.350028038,-1.141805649,3.849115133,-60.21869659,94.87770081,0.561769128
1456,4.8613801,-1.589204788,5.072800159,-47.58198929,123.9724426,12.76256466
1457,4.95868063,-1.229871035,4.753195286,-13.36347961,151.0721283,13.15937519
1458,5.348364353,-1.019956231,6.886534691,5.880507946,157.8387299,4.563464165
1459,4.924106121,-0.173745722,8.1288414,5.625277042,148.7424011,5.521563053
1460,5.053105354,0.298619807,8.542747498,6.653438091,151.2122345,8.897497177
1461,6.695017338,-0.148960501,9.411745071,6.03055191,157.402298,8.303442955
1462,6.971569538,0.051626187,10.37200356,-1.840435505,173.2003784,7.026205063
1463,7.607604027,0.318252444,10.91658115,-18.69553757,182.888916,15.4912672
1464,7.251010418,-0.029726673,11.03553772,-34.75663376,179.9466858,19.29268456
1465,5.433379173,0.013140433,10.34702778,-33.14616776,165.061554,8.744968414
1466,4.984699726,0.798669815,12.58821011,-22.58570862,135.404129,-4.695267677
1467,5.732815742,1.755027175,12.79374599,-13.47392464,93.02338409,-1.347814322
1468,7.673420429,0.772759974,10.46960735,-2.972350121,67.23696136,4.914086342
1469,8.746490479,-1.326889277,7.331439972,-2.590818882,94.12994385,6.997180939
1470,9.196908951,-2.705208063,7.523738861,35.31629181,107.6118927,5.467669487
1471,7.937764168,-2.269587994,9.098086357,65.3688736,115.531929,6.271564484
1472,5.013255119,-0.580949485,7.998299122,89.20346832,65.65441895,20.90407562
1473,2.435936689,0.73162663,5.107167721,75.62767792,51.99802399,19.73290825
1474,0.592366815,1.555977583,1.644679189,82.31420898,54.09981537,11.04007053
1475,-1.36251843,3.233757257,2.677718639,76.50440979,11.60900593,15.82338524
1476,-3.165973186,2.686563015,5.669450283,22.56027985,42.802742,-9.006020546
1477,-4.176747799,3.557104826,6.950842381,-45.61996841,138.4815369,-35.11051559
1478,-8.170619965,3.68063426,9.603082657,-41.10623932,83.33184052,-19.72616959
1479,-8.373726845,3.166848898,12.62662888,-103.4724121,21.76091003,4.45916748
1480,-2.370709658,-2.218732834,17.95263863,-134.3607941,-8.108057022,2.972876549
1481,-0.344879746,-1.539013624,12.29640102,-99.81950378,-42.18246841,1.256982207
1482,2.005418539,-0.404301345,10.76926041,-6.773909569,-8.984594345,-2.578457355
1483,0.506952465,-0.213263616,10.02161503,27.90389442,-8.061313629,-3.58163929
1484,0.188206077,0.126720458,11.40568542,27.62456322,-13.39270878,-7.488244534
1485,-0.430248052,0.292736143,10.8905592,22.35324478,-45.89171219,-9.206129074
1486,-1.173327565,-0.188205689,10.77931786,-16.35973167,-41.82496262,-13.64845467
1487,-1.084308028,-1.876609564,8.990625381,-32.80309677,-25.27434158,-1.172364354
1488,-1.324701786,-2.387680054,10.20770168,-6.824512959,6.072376728,2.382417679
1489,-1.759295464,-0.369449764,10.96255684,24.33415031,13.46215916,1.026982188
1490,0.022564396,0.429126382,11.61341572,15.60521698,9.765897751,-4.192368984
1491,0.904817581,0.653005838,11.12932301,-5.328544617,3.839467049,-9.86925602
1492,-0.066214293,1.053353548,10.87855148,-13.43780804,-2.811650038,-11.15771103
1493,-1.054079533,0.330021441,11.64437008,-8.908521652,-13.42983437,-4.473229885
1494,-1.156993151,-0.342385769,11.80021477,3.610728264,-15.51245403,-0.542099714
1495,-0.647291183,-0.970876276,11.23532104,20.32406235,-24.73255348,-0.650026977
1496,-0.384595215,-1.187926412,11.23342228,35.52565765,-24.82106972,-1.912289023
1497,-0.53224659,-0.441398293,11.4189043,32.89619446,-22.84691429,-2.877590418
1498,-0.476925641,0.524075389,11.626791,26.48595428,-8.003439903,-4.448886871
1499,-0.083551399,0.755961239,11.72003937,26.90825653,0.868426323,-1.829922915
1500,0.109764129,0.729078948,11.99569798,30.70281029,-0.055874296,0.730047643
1501,-0.24307771,1.068325996,11.72109604,35.10466766,0.890768707,0.743226111
1502,-0.68786943,1.247015834,11.5451107,31.73647118,-1.325282693,-2.206861973
1503,-0.865094602,1.18868053,11.44203663,24.95343399,-13.03469944,-5.191005707
1504,-0.657679021,0.806330085,11.24039745,18.59669876,-25.42562485,-4.730183125
1505,-0.077937052,0.516254723,10.94974327,16.76585007,-26.62058258,-3.497496843
1506,0.176036537,0.669141591,10.67419624,15.12508011,-21.2031498,-4.276005745
1507,0.113605626,1.141157627,9.998867989,14.79080009,-17.41051674,-7.516849518
1508,0.068185613,2.137003422,9.888347626,13.20681,-16.07613373,-9.156801224
1509,-0.040546209,2.702063322,10.86381245,8.263430595,-16.55485535,-6.790486813
1510,-0.038479526,2.147323608,11.79148293,-11.21229362,-14.98443413,-4.816769123
1511,0.288205475,1.13050878,11.38462162,-14.04176807,-10.9873724,-4.596869946
1512,0.629390121,0.453315377,11.13962364,2.98532176,-11.86281013,-3.959572077
1513,1.10065341,0.578587532,11.59164333,23.97061729,-19.8933754,-2.19874239
1514,0.984594107,1.454093933,11.60156441,27.94741058,-19.22547531,-2.579164505
1515,0.713963509,1.308322549,11.78928185,11.8809967,-7.670234203,-3.380884886
1516,0.810914159,1.232168198,11.79056263,-8.372062683,-12.74675369,-2.57553196
1517,1.090172768,1.636189222,11.35736275,-18.48954773,-23.8065567,-2.975590706
1518,0.971233189,1.689362407,11.11267567,-14.45721054,-32.67236328,0.353405625
1519,0.848403454,1.339429736,11.38642025,-5.434661388,-50.37966919,7.505204201
1520,1.307180166,0.845407963,11.52315617,-0.410619289,-79.50397491,10.47016525
1521,1.556353569,0.314471751,12.09774494,-12.364995,-100.0430984,8.032265663
1522,1.644901633,-0.028369129,10.42447186,-5.661112309,-125.5354233,5.108570576
1523,2.424847603,-0.346435308,8.550253868,3.89016366,-134.4212799,0.30650112
1524,3.489018917,-0.416846514,8.441202164,8.367278099,-138.6555328,-2.359384775
1525,4.207716942,0.117575467,8.666481972,8.84858799,-128.851532,-4.034967422
1526,4.050824165,0.810430944,8.903090477,18.93996811,-124.4648209,1.731918812
1527,4.562102318,1.497476697,8.866942406,27.0562458,-127.5139389,8.961742401
1528,5.14050436,1.288752794,9.272170067,27.54159737,-139.9536743,12.195714
1529,5.14639473,1.398634672,9.310423851,23.79448318,-156.2323761,12.42214012
1530,4.840955734,1.165504575,9.519948006,22.03602791,-166.5676727,14.69273281
1531,4.225268364,0.812444687,9.264345169,16.02050018,-169.7816925,16.95978928
1532,4.283062458,0.818629682,9.618541718,17.96159172,-171.8729095,19.67529106
1533,4.462990284,1.157756925,10.0324955,13.22979355,-159.83255,19.70876312
1534,4.265496254,1.849091411,9.3174963,0.564698756,-130.531311,21.90737534
1535,4.591238976,2.24364996,9.497913361,-7.909995079,-109.9030228,27.09228516
1536,4.182525635,2.246293068,9.863105774,-16.9166317,-110.6757355,26.23558617
1537,3.708450556,1.958434939,7.764495373,-19.51282692,-94.90341949,20.97307777
1538,3.694738626,0.837721586,7.949773312,-0.765797496,-76.28582001,13.64537144
1539,3.821331739,-0.04087662,8.302657127,1.835231304,-60.21359634,4.330593586
1540,3.9709723,0.209263355,7.689908504,-21.1205864,-34.43616867,-3.515837193
1541,4.516893387,0.766623974,7.318054199,-40.58794022,-21.81152153,-9.124518394
1542,4.906610966,1.165257931,7.658697605,-52.3018074,-10.69703865,-12.29074097
1543,5.169941902,0.759137452,7.697849274,-54.72360992,12.76995373,-12.02038383
1544,4.927700043,0.27354151,7.403699398,-63.74435425,37.41252136,-12.06425571
1545,4.07215929,0.176656067,7.383089066,-56.06718826,54.43671036,-10.34798622
1546,4.357532978,-0.528415322,8.705039978,-35.91657257,56.0806427,-4.995400429
1547,5.466432571,-0.969119787,8.804933548,-17.64236832,46.02667618,0.695089817
1548,5.964362144,-0.897752404,7.850944042,-7.226428986,61.94584656,8.308459282
1549,5.105700493,-0.528008044,6.363727093,-16.46130371,67.34604645,14.78699112
1550,3.956111431,0.407225072,3.897694111,-10.06570244,84.2156601,20.83447456
1551,4.540215969,0.892092347,4.425142765,-15.85698986,106.1302567,21.05605507
1552,4.477735996,0.336784899,5.396396637,-30.80428696,133.9164886,12.77189445
1553,5.251659393,-0.201989532,6.057006359,-33.83481598,156.6799164,-1.013739944
1554,5.751215935,-0.426300228,8.137081146,-34.49651718,157.2102966,-4.251763344
1555,5.267944813,-0.694150388,8.569112778,-32.31429291,160.7569275,4.887206554
1556,5.120260715,-1.439589024,9.37224102,-32.91112518,160.2220917,14.82536983
1557,5.176411629,-1.445303082,9.439133644,-34.11841583,155.0308075,14.60062408
1558,5.362089157,-0.756330848,10.68610191,-42.19802475,148.3628082,12.23189545
1559,5.300065517,-0.070029557,10.58137417,-42.61004257,151.3141327,12.8690834
1560,4.401174545,0.380831271,11.24083996,-34.02212524,144.1670837,11.68925762
1561,4.651556015,-0.090439938,12.83233929,-26.03979492,124.3109589,5.306715965
1562,6.153515816,-0.437839091,14.10582829,-17.90158463,95.95555115,0.233730122
1563,7.721828461,-1.156290293,12.88906193,-27.22738647,82.5766983,6.238005638
1564,8.425940514,-2.156591177,11.35958099,-40.52056503,98.21391296,12.93572235
1565,8.284552574,-2.398113012,9.008111954,4.946199417,98.95714569,16.16926384
1566,7.756670475,-2.456071138,7.233206749,70.11338806,84.00622559,14.06780148
1567,7.205389977,-1.450371742,6.351843357,77.10390472,80.95478058,12.05298996
1568,4.209506989,-0.465188563,7.097322464,56.76118469,89.20175171,17.8475132
1569,0.555554271,0.475085199,3.290721416,71.09239197,17.93789864,24.48898506
1570,-1.206847072,1.809172869,3.562059164,89.71860504,-26.54866028,25.3908062
1571,-1.049554944,-1.114127874,5.085438728,45.91781998,5.008985519,19.17572403
1572,-2.545692444,-2.691251516,6.234375954,-37.99245453,113.3493195,0.35406217
1573,-4.930528164,-0.148678377,10.57843208,-62.60352707,161.9385986,-27.67090034
1574,-6.206421375,2.440164566,8.055998802,-30.85221672,63.57982635,-7.533924103
1575,-4.680482864,1.602411747,15.08621025,-39.47929764,17.17476845,19.85539055
1576,-1.986944199,-4.061507702,15.4445858,-77.67803192,-2.55196929,5.377244949
1577,0.543545365,-1.868775725,10.65825081,-15.82648277,-0.33543697,-0.987216651
1578,1.397900105,0.788645506,9.883005142,55.9086113,7.061403751,1.458384275
1579,0.455573112,1.631392121,10.42988777,49.27773285,-5.555243969,17.81522179
1580,0.232874215,1.309116364,10.96079159,23.89382553,-29.27425003,16.25552177
1581,0.194866002,-0.951633751,11.00914574,-0.484601557,-40.90155411,6.052906513
1582,-0.936857641,-2.29561615,11.08818626,-15.91189957,-42.78011322,-6.011927605
1583,-1.295351386,-2.214228868,9.362294197,-9.951752663,-31.85375977,-8.52976799
1584,-1.835457087,-1.68477881,10.70506763,16.38330841,-10.7895565,-1.508180261
1585,-0.979670286,-0.935464025,11.70679474,44.66355515,-3.4728055,-0.618659854
1586,0.68098551,-0.132517964,11.38495731,51.08263779,4.359007835,-2.037214518
1587,0.383182913,1.063762784,11.07178879,50.88915253,0.582418799,-1.969327092
1588,-0.13210763,2.373511314,10.840168,46.45360565,-20.64357376,-1.23628509
1589,-0.452511311,2.244027615,11.40255356,47.3514061,-33.83408737,0.856325984
1590,-0.547240078,0.70116359,11.88049316,49.70365143,-29.36956024,1.581846118
1591,-0.361407459,-0.599602461,12.06191254,52.65909958,-20.54360199,1.24569428
1592,-0.249407127,-0.522723436,12.25249577,43.74908829,-20.28094482,1.91210568
1593,-0.282082647,0.371904433,12.15266514,36.813591,-16.91134834,-0.931225419
1594,-0.270593315,1.052484632,12.26408768,28.75007248,-5.618688583,-6.919523239
1595,-0.032666504,1.802730918,12.34902191,17.42190552,-5.709360123,-7.402950764
1596,0.151042849,2.313451052,12.13475037,7.27809,-12.48120403,-3.445409775
1597,-0.057029285,2.171755791,11.68219185,4.27656889,-14.44095802,0.181209996
1598,-0.166127831,1.566684723,11.27596378,4.243541241,-15.24302006,2.889345407
1599,-0.036521554,0.893559217,11.21749401,5.368607521,-17.51322365,4.766439438
1600,0.375357807,0.853806138,10.85275459,10.13728619,-20.02879333,4.197461605
1601,0.680732787,1.380740404,10.4071207,9.33373642,-17.46980667,1.210515499
1602,0.669321537,1.919848204,10.11429787,4.512033463,-14.41308403,-0.772991955
1603,0.690008044,1.644317508,10.06539726,-3.35726285,-10.97088432,-0.059716038
1604,0.59522301,1.454524755,10.00877762,-4.080589294,0.504486918,1.234103084
1605,-0.128673464,1.645730853,11.04389763,-15.4377985,5.557095528,-1.322832942
1606,0.067371398,2.174358368,12.02151871,-36.23678589,-18.50371742,-3.588674068
1607,0.848765612,2.747508287,11.89443874,-49.12602234,-37.75170517,-4.063221931
1608,1.5965451,1.16222322,12.23892212,-52.11169052,-42.3639946,-0.640923142
1609,1.852491736,-0.425557196,11.99538994,-48.65489578,-41.31756973,3.227745771
1610,1.07479763,-0.967009068,11.85045815,-48.80664063,-39.68801498,4.62256813
1611,0.692277491,-1.184499025,12.55780983,-45.13391113,-50.74156189,2.271697998
1612,0.556566,-0.559136331,13.72202301,-36.68186951,-63.54030228,-4.040569782
1613,0.773468018,0.683854282,12.2276907,-6.589585781,-104.9156647,5.559434414
1614,2.43718338,2.064032316,6.068515778,35.12177277,-174.7861176,15.95927334
1615,4.281414986,2.973218679,5.699002266,32.11648178,-164.1251831,13.57921696
1616,4.744782925,1.821404338,8.226877213,4.506180763,-129.2092438,6.654918194
1617,4.197381496,0.175897717,8.988359451,1.43623054,-121.8210678,2.291995764
1618,4.516475201,-0.09865509,8.390523911,5.202573299,-119.3750458,5.406793594
1619,5.219978809,-0.104745083,8.108139038,20.89544868,-127.6269608,15.57578373
1620,5.337674141,-0.315600961,8.550188065,32.45883942,-130.8455963,20.42131042
1621,5.155369282,-0.263519734,9.059757233,40.82446289,-126.3477249,16.74614525
1622,4.527152538,0.199707642,9.571763992,44.54572296,-128.8126068,17.03292847
1623,4.635727406,0.478764892,10.20567131,42.06252289,-142.9894867,23.30627251
1624,5.215426445,0.326840669,10.31489944,22.85669136,-148.0080261,25.50747299
1625,5.366522312,0.221518502,9.444863319,2.146891832,-123.3725739,20.84438705
1626,4.800167561,0.358961105,8.867745399,-1.049563646,-91.86283112,14.19768524
1627,4.427113533,0.294055462,8.738481522,-3.401977777,-69.94467926,12.06121731
1628,3.934503317,-0.24370572,8.705914497,-10.10704613,-57.08311081,8.177933693
1629,3.656833649,-0.745582402,8.949322701,-7.14065218,-54.18226242,0.815676987
1630,3.206775904,-0.419693708,9.004671097,-3.483588934,-50.47694778,-4.679725647
1631,2.770137548,0.68923074,8.655459404,7.187769413,-41.69664001,-5.215995312
1632,2.93091321,1.739566326,8.645875931,19.17687798,-31.77318382,-3.22575593
1633,3.115283489,2.306329489,8.629021645,12.41211987,-29.16706657,-3.099660158
1634,2.899116516,2.676822186,8.693881035,5.55872488,-14.4637146,-10.02776909
1635,3.564533234,2.417015791,8.521426201,4.427407742,-2.38971734,-11.26415157
1636,4.628968239,1.247234941,8.924277306,-11.66568947,13.3545351,-7.964457512
1637,4.919763565,0.971518338,8.193818092,-13.5185585,19.5672226,-6.136950016
1638,5.408382893,0.160189584,8.69747448,-3.543844223,31.5512867,-7.946529865
1639,5.773167133,0.301186472,9.22368145,20.59981918,34.84532928,-5.218848705
1640,5.175992489,-0.229765311,8.217855453,30.8391819,33.8051796,3.787384272
1641,4.277029514,-0.503518164,5.181773186,-11.31374931,67.09765625,8.410790443
1642,4.29321909,-0.163387328,3.8313694,-22.89463425,75.24677277,7.310505867
1643,5.240472794,0.221753016,4.692240715,-19.69774628,105.1742706,-1.304283142
1644,5.625369072,0.456191421,5.180606365,-22.64128304,135.7863007,-12.30209732
1645,5.366615772,0.442262024,6.064337254,-17.76251984,164.6051636,-13.30712986
1646,4.665788651,0.286129892,7.814070702,-27.55629349,168.3577728,-3.666821718
1647,4.874971867,-0.053753108,8.654899597,-44.3115921,165.0760498,9.156032562
1648,5.443954468,-0.432641298,9.049297333,-54.03975677,157.291214,15.17862701
1649,5.715019703,-0.791498482,10.04535675,-59.72161102,147.5836182,18.12608337
1650,5.809715748,-0.399053454,11.17085743,-70.92490387,146.9812469,27.56317329
1651,5.745562553,-0.548895955,10.9010725,-57.07009888,139.6268158,37.98618317
1652,5.333834648,-1.217119336,10.2269268,-30.4650135,132.0395355,30.04357529
1653,4.939394951,-0.978360057,10.94409466,-13.23098373,118.3910446,5.551765919
1654,5.306230545,0.389411777,12.00998878,-4.437067032,96.35540771,-9.895902634
1655,7.459498405,0.873892307,12.42120457,-1.251267672,81.97684479,-6.187298298
1656,9.045928001,-0.998835564,11.30723095,-13.35966396,89.68489838,4.293588161
1657,8.880539894,-1.332206964,9.585599899,7.931486607,107.7560196,8.903388023
1658,8.072198868,-1.591957331,8.832065582,50.69454575,95.80487061,13.59332085
1659,7.183617592,-1.695921302,7.682801723,82.63191223,88.9783783,14.47691727
1660,4.255997658,-0.291230291,6.039898872,115.5504761,39.30049133,21.43109322
1661,1.619302154,0.027509447,0.513579309,150.5344543,2.549765825,20.12837219
1662,0.100740224,1.131784081,3.823732138,135.4312286,-1.457175255,8.141838074
1663,-0.877156436,1.57608676,4.088728428,86.39389801,33.36547089,-18.32369232
1664,-2.261722088,1.638414502,5.022507191,-0.867900491,106.8912048,-39.58584213
1665,-4.823849201,3.140491724,8.5623312,-46.78343964,161.4844208,-44.44682312
1666,-8.517753601,3.823187828,16.11404228,-88.04376221,80.28559113,-15.91881466
1667,-7.36070776,1.64997232,8.900592804,-102.0619583,9.70357132,15.77089882
1668,-1.847541571,-4.985623837,17.44221687,-105.318634,-22.84317398,23.50586128
1669,0.427842349,-3.61888504,10.09106159,-4.729876041,-7.68185854,14.9046669
1670,1.776540875,0.675462544,9.948070526,91.99643707,5.69984436,-13.08483219
1671,0.72893846,2.448351383,10.88348389,68.95544434,-16.52511215,-20.38587761
1672,1.062111735,3.564407349,10.73076057,18.20048714,-27.63672638,-11.22134972
1673,0.871171892,1.265663862,11.14254951,-34.14652252,-31.67970467,3.121603489
1674,-0.602068365,-0.545981944,11.1865778,-64.65355682,-23.83604431,9.24263382
1675,-3.010394096,-1.088602424,10.47149944,-44.70267105,-22.75861168,6.875964165
1676,-3.556521177,-0.740244329,10.02842045,3.324771404,-22.45819092,-3.395981312
1677,-1.793016911,0.379297942,10.16435337,11.26855373,-17.90829468,-12.19316864
1678,0.762739897,0.791305065,10.44538975,-11.24058437,-14.39041328,-10.19870853
1679,1.396273613,0.8391366,10.46891403,-31.95217514,-14.44516182,-8.78808403
1680,0.820233285,1.019601107,10.46108913,3.536314011,-1.452739835,-7.764503479
1681,-0.594183624,0.417694598,12.06781006,46.16296005,3.292486191,-1.160731435
1682,-1.342996955,-0.193679094,12.73305511,43.29428101,-10.49791145,12.38934135
1683,-0.862177849,0.554935038,12.7445488,28.65999985,-22.8092289,18.52156639
1684,-1.017371774,1.963285208,11.97828388,24.69429779,-33.79345322,12.57756519
1685,-0.569865525,2.318329573,11.80601883,32.46165466,-47.86272049,3.159766912
1686,0.134081006,1.697449207,11.54094505,37.73263931,-40.46537018,-4.771038055
1687,0.400614291,0.696236551,12.00362587,35.59720993,-25.82287979,-2.80146575
1688,0.255246073,0.237254694,11.99517822,35.04413223,-16.96578026,4.073875427
1689,0.460961819,0.077699579,11.92230988,26.98708534,-12.35594463,5.810246468
1690,0.69664377,0.601950347,11.70180607,17.14640808,-14.54477406,2.529559612
1691,0.773763835,0.857728302,11.35331059,11.27766228,-15.54503059,-0.134261906
1692,0.598512352,1.157999277,10.99171257,6.446842194,-12.48528957,-0.741424143
1693,0.444188416,1.66645062,10.86244106,0.643877804,-8.142169952,-0.32893762
1694,0.35559687,1.914090157,11.25874615,-5.109415054,-8.936235428,-0.724724352
1695,0.46458295,1.774760723,11.54765606,-9.195108414,-11.83323193,-3.862872839
1696,0.84534502,1.566274166,11.40814209,-8.322379112,-10.45495796,-6.366630077
1697,1.133535743,1.333480358,11.10445023,-11.70935822,-3.038737059,-5.48631382
1698,1.078439593,1.018010616,11.31325245,-21.40616226,0.369553477,-1.772446752
1699,0.979136407,0.868315518,11.03931808,-26.98195648,-2.877037287,2.866913795
1700,0.657351255,1.105722308,10.78368664,-25.16893387,-3.361270905,4.294644356
1701,0.567637324,1.565682054,10.6270113,-22.99548149,-4.421343803,3.303494215
1702,0.543007255,1.489097714,10.58968067,-22.76270676,-4.180992603,1.469070315
1703,0.846575856,0.907919824,10.50963211,-25.86343956,0.613579333,1.726556182
1704,1.058052301,0.201577485,10.66792488,-36.22864151,-1.359137654,4.723579407
1705,1.154627323,-0.311739922,10.87782288,-43.14401245,-15.05231857,7.452121735
1706,1.064522147,-0.432795018,10.99768257,-44.93810654,-27.77084351,7.584624767
1707,1.054201126,-0.204469949,11.11287975,-42.31160736,-38.95799637,5.26480341
1708,1.073447824,0.50249356,11.48520374,-32.6542244,-52.8509407,0.233629405
1709,1.137736559,1.459136963,11.11240578,6.985560417,-81.50662231,-0.181534275
1710,1.462215304,1.340217233,10.99625969,36.73262787,-120.3014221,-1.261457443
1711,2.364838839,0.850031555,10.2293148,32.11672592,-161.2173004,-5.243848801
1712,3.3673594,-0.540846765,10.17094135,27.93260384,-171.45755,-3.80100894
1713,4.173654079,-1.595121145,9.683402061,30.88277245,-177.8266144,6.329144478
1714,5.070785522,-0.572725534,8.021344185,40.41962051,-176.2627106,10.79552937
1715,5.367288113,0.086869903,8.459589005,42.86183929,-161.3699341,5.722644329
1716,5.562036991,1.09772718,9.702197075,27.65050507,-167.1964417,2.636863947
1717,5.836484432,1.346735477,9.480968475,20.36627769,-163.0946503,6.545769691
1718,5.924366951,1.198269963,9.510456085,12.86168957,-153.4087372,9.64080143
1719,5.507460594,1.077189803,9.124876976,17.95632553,-145.2233582,9.098640442
1720,4.722481251,0.99290216,8.865457535,11.1471796,-125.9230881,12.06525326
1721,4.361129761,1.022132158,9.079770088,1.987806797,-102.64888,16.4555912
1722,4.693133354,1.323745012,9.112875938,-14.00833416,-81.16195679,14.94559669
1723,4.495414734,1.454785585,8.958399773,-29.58021355,-66.47322083,10.19576454
1724,3.741606712,1.347188354,8.861194611,-32.02792358,-60.80286407,3.528201818
1725,3.265164614,1.204959393,9.16024971,-34.51293182,-53.90729523,-0.869269073
1726,2.973895311,1.18824017,9.341283798,-33.0294075,-52.09168625,2.054460526
1727,2.879246473,0.620528936,9.138487816,-20.7941227,-38.13583374,5.394237041
1728,3.030677319,0.13528657,8.898366928,-7.170044899,-30.79597473,4.360456467
1729,3.44993782,0.432063222,8.466784477,-1.44467473,-24.57648849,0.749025822
1730,4.219612598,1.053965807,8.10893631,-5.426232338,-11.15153122,-1.912552714
1731,4.461502075,0.382964373,8.466783524,-20.38901901,4.784657955,-2.374582767
1732,3.805433273,-0.424182653,8.410575867,-29.23483467,15.40403175,-3.501346588
1733,3.861390352,-0.614316642,8.419211388,-23.66378403,17.05499077,-3.355504513
1734,4.900076389,-0.729191065,8.085865021,-24.07845879,27.95896339,-2.200282097
1735,5.455166817,-0.114612423,7.31487608,-3.385617733,35.87524033,-1.781281948
1736,5.269189835,0.70693934,7.688932896,3.038652897,42.71200943,2.537204266
1737,4.893225193,1.055502653,6.478097916,-7.692492008,60.39341354,8.265346527
1738,5.6361866,0.153874621,5.844304562,-13.31093025,72.84367371,14.74444389
1739,5.614827633,-1.036974549,6.450060844,-14.22693539,94.12548065,22.86575508
1740,5.230642319,-1.058101535,6.092738628,-0.353633761,119.2057343,24.83590317
1741,5.190684795,-0.723448992,6.693929195,15.41162872,138.8196411,21.68815422
1742,5.358691216,-0.297986835,7.819094181,4.21884203,151.8628082,15.70367527
1743,5.548743248,-0.328136832,8.297638893,-14.1401844,151.3265533,9.392835617
1744,6.390257835,-0.800527394,9.210297585,-27.2821846,145.4892273,7.088779449
1745,7.128535748,-0.709075212,10.5248642,-46.63547134,147.6382904,11.14666462
1746,7.82012701,-0.796572804,11.92296314,-59.1266861,138.2999268,20.1384716
1747,8.476121902,-0.917007983,11.02425766,-43.40045166,120.9185562,26.97911072
1748,8.58332634,-0.485858709,10.75479126,-18.68873787,98.58620453,21.52724648
1749,8.054672241,0.336123943,11.14131355,-10.57362652,82.70269775,8.993071556
1750,8.308110237,-0.542552412,10.202281,-23.47731781,96.71087646,-1.926283002
1751,10.45461845,-2.118477345,9.186917305,0.779870868,88.93389893,-3.623824835
1752,9.68132782,-2.851516247,5.640215874,63.89003372,96.6880722,3.073753119
1753,6.830087185,-1.516625524,5.290470123,107.0843811,73.81962585,25.76879883
1754,4.839293003,-1.427248716,6.112897396,120.0731583,25.16087914,23.79085732
1755,3.162926674,0.158076197,5.139581203,122.8617325,-44.741745,-8.755851746
1756,2.320079565,3.350921392,-2.015990734,150.3388062,-40.93937683,-21.97573853
1757,2.261801958,4.38077879,1.814880848,111.5072784,11.15770817,-9.436478615
1758,-0.009054892,2.290931463,3.252763987,-29.01166344,104.2093964,-5.680580139
1759,-4.169220448,1.791405678,3.81677103,-98.62552643,252.6780701,-26.70885086
1760,-5.780494213,1.732174158,17.76844978,-166.0112762,370.5614929,-67.10416412
1761,-7.96244812,1.022132516,14.83985043,-176.6428223,127.4917145,-25.88997269
1762,-6.492651463,-4.998290539,14.15986538,-123.0095367,-13.18120003,13.87970161
1763,-2.310133934,-2.241337299,8.80566597,-3.834933519,-4.720685482,10.94820499
1764,-0.262469292,-0.375336647,9.794366837,72.29161072,-7.123529434,-4.06030941
1765,-0.516598403,1.145697832,10.5542202,33.92906189,-14.13979435,-1.962934494
1766,1.000694036,1.220493317,11.05783939,-12.36673164,-28.66843796,1.475258112
1767,3.001652479,-1.307315826,10.33185005,-44.91261292,-43.40543747,-3.01040411
1768,0.983189106,-3.896256447,10.90655327,-68.36064911,-15.5754118,-4.022346497
1769,-1.250342846,-3.593741655,9.532370567,-37.81043243,10.7939043,5.700905323
1770,-2.681558132,-1.814944267,9.580981255,31.26771545,14.38302135,4.671949387
1771,-2.974230528,-0.099742249,10.58061504,56.01228714,13.38604641,-2.714152098
1772,-0.877754331,0.579470396,11.36330891,49.24718857,2.003929138,-4.702384472
1773,0.462732345,1.401517391,10.8891592,32.04794693,-17.74121857,-9.859972
1774,0.537891448,1.590147138,10.7443819,24.1462059,-15.33488655,-15.49128914
1775,-0.015654992,0.578555584,11.56974316,21.61752892,-14.10311794,-13.97595119
1776,-1.419476867,-0.480967522,12.50848579,20.04628181,-18.23075104,-7.377200127
1777,-1.446897626,-1.079040766,12.2259407,16.47548103,-29.47705841,-1.13340497
1778,-0.434874862,-0.962910712,11.64972115,17.68070602,-35.88909912,-0.589850962
1779,-0.231120646,-0.280282885,11.61214733,32.1831398,-25.59612274,-4.331037521
1780,-0.258475333,-0.15535146,12.08723354,50.56508255,-10.5956707,-6.689786434
1781,0.196423963,-0.480841726,12.14874363,45.08767319,-4.041879177,-3.123452902
1782,0.402204037,-0.087422162,11.99343967,28.85194969,-16.18255806,1.576454997
1783,0.214041933,0.801427245,11.59355259,22.68386459,-30.97528458,-0.617621422
1784,-0.190065876,1.345004201,11.61355591,22.04542542,-33.12095261,-8.440810204
1785,-0.0466795,1.322691917,11.84634399,17.4910965,-28.72364426,-11.36434078
1786,0.541507244,0.915750504,11.82378769,15.26260471,-13.69408512,-10.10792923
1787,0.791122973,0.841020644,11.33631706,16.45695686,2.892060995,-5.651415348
1788,0.341824293,0.83828032,11.18853664,12.76485252,2.147818327,-1.257526755
1789,0.056415983,0.609018922,11.26110458,-2.381937027,-9.256503105,1.334319472
1790,0.470116228,0.243511528,11.07685375,-13.33287144,-16.871912,1.687008858
1791,0.839877188,0.284967035,10.97080612,-11.0327816,-21.46401024,1.201090693
1792,0.704221845,0.516098917,11.33239174,-2.770313978,-24.1337719,1.616657853
1793,0.201267183,1.017848492,12.33978748,-4.616206646,-25.23238945,1.3872509
1794,0.528276205,1.586546063,11.88035202,-1.231288195,-23.43386459,3.376131773
1795,0.743451297,2.118696213,10.92745686,0.674459636,-14.25843811,1.610181808
1796,0.491269618,1.672338009,10.9024086,-6.856037617,-20.99735832,-0.818666458
1797,0.527189076,1.01806891,10.77179337,-22.10665703,-35.85126495,-1.416640759
1798,1.08441627,0.288652182,10.88746643,-36.92417526,-45.32511139,2.875425339
1799,1.907849193,-0.252755761,11.08958817,-37.19807434,-58.649189,7.852599621
1800,2.603872538,-0.057040468,11.21634197,-29.72225761,-70.77339172,8.392394066
1801,2.90167284,0.332973123,11.55237389,-25.788311,-80.12883759,5.110476494
1802,2.85544014,0.779046476,11.6241684,-9.318532944,-95.97756195,2.886249065
1803,2.889764547,0.785013378,11.88553524,16.82330513,-106.8332748,1.975742579
1804,3.073134661,0.602291346,11.69988346,40.70111847,-130.2007904,8.423218727
1805,3.729236841,-0.360253215,9.889782906,43.38147736,-146.7547302,14.61405087
1806,4.15775013,-0.007735483,8.106363297,32.65420914,-149.0987854,18.39715767
1807,4.732579231,0.672644019,7.664628983,31.36553383,-139.4159851,21.03531456
1808,5.277072906,1.339688897,8.244690895,33.60775375,-133.8871613,16.98626137
1809,5.951107979,1.643097878,9.191590309,23.56386185,-145.5314178,13.57253838
1810,5.894071579,0.869173586,9.183046341,-1.47481215,-144.6783905,13.74524021
1811,5.07131052,-0.062045187,8.571792603,-9.763404846,-131.2225037,11.42418957
1812,4.45814991,-0.452118367,8.001686096,-1.939108014,-119.9896774,7.789441586
1813,3.946187496,0.062145971,8.391914368,1.42653656,-105.9238968,4.259131432
1814,3.84556365,0.567870617,9.367546082,-13.69873047,-89.24887848,1.757395267
1815,4.106561184,0.755657494,9.151071548,-33.84449005,-68.43428802,2.830120564
1816,3.76380372,0.458581865,9.681941032,-54.85184479,-50.71679688,3.460721731
1817,2.811604261,0.547078192,9.675662994,-59.49168015,-50.7859726,5.719727516
1818,2.178557158,0.238895193,9.101793289,-45.95428467,-56.22260666,6.561411381
1819,2.357093811,-0.325593054,8.556168556,-13.53866482,-58.98867798,5.412270069
1820,2.952922344,-0.075558595,8.970336914,14.48291397,-55.7934227,-1.349075079
1821,4.115788937,0.839229882,8.425983429,30.14880753,-43.61826706,-0.059364423
1822,4.858106136,0.62444067,8.108923912,14.94263077,-26.32819557,2.290378094
1823,3.856253624,0.747180164,8.021172523,-13.85017395,-12.25676823,-2.01666975
1824,3.676867247,0.01783574,8.431619644,-32.57927322,4.963932991,-1.303870678
1825,4.981748581,-1.392232537,7.886986732,-19.51158524,17.66938019,-2.284261703
1826,5.961770535,-1.910503387,7.376998425,-11.23382664,32.10795975,-4.0157547
1827,5.35759449,-1.066970944,7.12443018,-4.128709316,46.69335556,-4.501415253
1828,4.091191769,-0.226256251,6.97098875,14.89741611,59.53279114,-4.635032177
1829,4.71447134,-0.255942523,6.906197071,7.806929588,81.25137329,-5.253622055
1830,5.340500832,-0.206768215,6.694856167,-8.003900528,101.0748138,-3.017541647
1831,5.352454185,0.283468902,5.842121601,-14.26656246,121.3745422,5.553566933
1832,4.905513763,-0.118857637,5.893192768,-14.83206367,154.5305939,12.42269421
1833,3.880634785,-0.593082666,7.078303814,-17.80342674,165.7806702,10.48529339
1834,3.698147535,-0.700388074,8.558950424,-25.8502121,153.1857147,10.23553658
1835,4.527701378,-0.726974428,8.944281578,-27.59162903,153.9267273,14.76911926
1836,5.212672234,-0.956295669,9.329236031,-16.98513985,156.8371887,17.78686905
1837,5.313569546,-1.00793469,9.788141251,-9.522461891,164.5596771,17.30519295
1838,4.773805141,-0.374035478,10.29022503,-22.00944519,161.7485046,22.10639381
1839,4.138619423,0.316549003,10.25568485,-37.2790451,149.4132843,33.17464066
1840,4.506617546,-0.020093039,11.32682705,-59.61724472,139.2444153,40.8144722
1841,4.60488224,-0.562138617,11.26970387,-62.1999855,124.5269699,36.09089661
1842,6.213364601,-2.434750557,11.51768494,-42.7419548,111.2816772,33.83786392
1843,8.714673996,-4.588150978,13.43229103,-47.24332047,98.70202637,22.40028572
1844,8.488423347,-3.695413828,11.46656227,-12.69805813,89.38639832,10.76193142
1845,6.955376625,-2.451507568,11.05038071,22.97192764,100.782814,4.525057793
1846,5.760210514,-1.506719828,9.103975296,61.48314285,89.2144928,10.92410755
1847,5.245101452,-1.418264151,6.874506474,105.8094711,50.53762817,23.01407051
1848,4.239645004,-0.509127736,5.820690155,183.6007233,-40.7575264,26.75222588
1849,3.316357374,0.372413069,4.624730587,238.3963928,-123.4660797,11.93238354
1850,2.513605118,-0.169724882,2.37988615,237.7134552,-103.9682083,-0.62824291
1851,1.159775615,-0.779358089,3.575755358,142.2224731,-68.2311554,-14.27180862
1852,-2.654811859,0.956888556,2.994590044,-89.87892914,-9.425205231,-13.15709686
1853,-4.806033611,3.471769333,2.601117373,-143.883194,177.7858734,-55.79975891
1854,-4.264446259,6.110686302,15.31342125,-135.0882263,413.507019,-82.3737793
1855,-5.013494015,2.510680914,16.12035942,-186.5194855,174.198349,-28.4463501
1856,-8.26154995,-5.560913563,15.93356133,-164.6701965,-5.685987473,-1.681391478
1857,-3.067460537,-5.458050728,8.722338676,-26.23696327,-7.061285496,-3.795876026
1858,0.720586777,-2.201583147,9.349796295,98.8520813,-30.35883522,-14.03597641
1859,1.695482969,0.014890708,10.45553589,82.32408142,-41.53179169,-10.22066116
1860,1.464900136,2.62926054,10.88102055,38.55085754,-41.46596909,-2.785015345
1861,1.119730949,0.901866674,12.04636097,-11.21038723,-40.08572006,0.025772933
1862,-0.800656557,-0.091498882,11.55681324,-37.00660706,-22.50814629,-5.15262413
1863,-2.49667263,-1.035451412,10.51901913,-24.39686012,-17.25410843,-4.409515858
1864,-3.158124208,-1.160475731,10.42026997,5.755605221,-9.642328262,-3.726047516
1865,-3.076668501,-0.810788631,10.72109413,18.17272568,-10.56197166,-5.662266731
1866,-0.921678603,-0.413930923,10.97041416,11.29715061,-9.273265839,-7.751203537
1867,0.264477819,0.305687755,10.67587185,3.188479185,-28.40465546,-14.61851406
1868,0.258759916,1.111266136,10.39295292,10.4383688,-49.41585159,-18.49354935
1869,0.175600246,1.166737676,11.18621254,29.32616234,-47.07892609,-12.34879112
1870,-0.075104974,0.627938449,12.27550411,35.59011459,-35.9645195,2.728263855
1871,-0.488908142,0.541629672,12.38258839,31.97203827,-33.15565491,11.99216652
1872,-0.70989871,0.652249694,11.96359253,24.2086277,-28.18912506,5.588808537
1873,-0.670763195,0.473182797,11.71746922,18.62734222,-12.93508339,-0.648213804
1874,-0.012251043,0.15471527,11.99597168,31.93584442,0.036786374,-3.291397572
1875,0.392009288,0.45178467,11.90035248,39.80376434,1.836825132,-1.916474462
1876,0.400390506,1.281509876,11.62058926,32.65331268,-6.876083374,3.42764616
1877,-0.068482652,2.105480909,11.53463078,11.08956814,-20.46674919,6.970460892
1878,-0.540077984,2.026812792,11.49923897,-3.973692179,-25.39943314,5.155060768
1879,-0.367106766,1.007157922,11.34269142,-6.970367908,-14.29775906,4.263276577
1880,0.106349543,0.155765086,11.47442818,-10.31218433,-3.013816118,7.964874744
1881,0.732872546,0.072013363,11.30680752,-14.54987431,-1.134579897,12.32936001
1882,1.434894323,0.444951802,10.99750423,-23.33691597,-5.517193794,11.00719452
1883,1.308414459,0.490814984,11.08393288,-31.47098541,-10.58254719,2.133674145
1884,0.31685257,0.183810696,11.62758064,-26.51009369,-18.59308052,-5.116815567
1885,-0.543950856,0.196696982,12.11793709,-18.22905159,-27.79488182,0.052243706
1886,-0.586820066,0.649185658,12.44178963,-19.04795074,-35.26234436,8.811857224
1887,0.339589596,1.095032692,11.59662247,-18.37077522,-38.54196167,11.03361607
1888,1.565185308,0.467196226,11.30058289,-21.87975502,-38.6616745,8.87096405
1889,2.100209236,-0.64489764,11.43057442,-23.76299286,-44.98298264,7.538477421
1890,1.823668718,-0.801650703,11.3700304,-23.87686539,-44.31045151,3.701093912
1891,1.500329256,-0.761319101,11.43324566,-19.64486504,-39.93866348,2.815188169
1892,1.441943169,-0.591790199,11.25994682,-12.38645935,-43.01955032,1.009621382
1893,1.806601167,-0.12752746,10.79986382,-10.09980679,-61.33253098,-1.697306037
1894,2.243954182,0.47501862,10.09401608,-8.979759216,-80.91379547,-1.411081433
1895,2.846103668,0.35249421,9.366916656,-8.299495697,-99.22207642,-3.28339386
1896,3.248804092,-0.492863297,10.17977428,4.156376362,-105.2686996,-12.66302013
1897,3.741704941,-1.506527066,10.56882286,15.30303764,-102.3869095,-21.21914482
1898,3.870236158,-1.394201517,10.70171356,36.69729233,-109.0925598,-19.0717392
1899,3.598778009,-1.165753007,11.28542137,53.74414444,-130.6911316,-6.921711445
1900,4.308988571,-0.634501338,10.29542732,47.11670685,-160.4714355,-2.39654088
1901,4.170220375,0.240596443,10.16227913,42.07698059,-180.2864838,-2.900975943
1902,4.108258247,0.63029623,10.50207233,27.74936676,-203.841629,-2.286479235
1903,4.456873894,0.968957663,9.631264687,5.291980267,-208.4942932,-5.93037796
1904,5.010634422,0.773455203,9.013306618,-9.207901955,-179.1578217,-2.381393433
1905,5.166700363,0.595040977,9.058138847,-12.08257198,-153.5731812,-0.448195696
1906,5.065783501,0.488362908,8.574671745,-11.68252373,-121.0938492,3.161175728
1907,4.533546925,0.555156171,7.934512138,-4.037614346,-93.40737915,5.998986244
1908,4.306816578,0.401274532,7.533212662,1.83470428,-73.02610016,6.391634464
1909,3.995295525,0.258004099,7.696622849,1.058436155,-52.77378464,6.181602955
1910,3.182064056,0.101408124,8.858712196,-4.738425255,-46.68690872,7.912101269
1911,2.482778311,0.09945064,8.25797081,-8.154707909,-43.29066849,11.7788353
1912,2.540342093,0.178088263,8.254945755,-8.930623055,-32.5808754,11.17497635
1913,3.687278986,-0.213535354,8.569950104,1.291084051,-31.30734062,14.89786339
1914,4.21398735,-0.66868645,7.989269257,8.895535469,-28.92865181,12.04260349
1915,4.294035435,-1.035260916,7.577254772,6.243979931,-16.77285576,-3.33986187
1916,3.918393612,-0.638643444,7.900362015,-9.915823936,-0.853262246,-13.11728573
1917,4.11409235,0.581329346,7.911736012,-19.18095016,5.528650761,-7.322188377
1918,4.833878517,1.110226154,7.777504921,-3.32874918,9.151177406,-2.107983351
1919,5.951967239,1.338108182,7.212482452,-1.774099827,25.48168564,-2.376422167
1920,5.570040226,1.553989649,6.335346699,-14.55463505,32.66964722,-0.132367015
1921,4.475241661,1.315718174,4.834216118,-17.05986595,43.49589157,-0.676615894
1922,4.345943928,-0.083971456,5.073988438,-16.73120117,63.4980011,0.021137202
1923,5.779849529,-0.837068737,5.271344662,-29.95153809,97.04741669,1.28793025
1924,5.744503021,-1.246959686,5.609947681,-26.15518379,117.7256088,5.111243725
1925,5.186758041,-0.989575267,7.034752846,-13.8017292,128.5102081,6.009599209
1926,4.792241573,-0.2849603,6.312114239,-1.415666699,139.8444366,6.385609627
1927,5.071638107,-0.184795916,8.02120018,0.569307745,151.7663727,5.528291225
1928,5.221068382,-0.0978138,9.349704742,-6.190928459,149.9533997,5.873491287
1929,5.915899277,-0.274365336,9.029484749,-4.250702858,155.8578339,9.573856354
1930,6.351191044,-0.275974005,8.897824287,-8.833406448,159.6005707,14.4634037
1931,5.632724285,-0.165935695,9.733768463,-31.10897446,160.1974792,21.20763969
1932,5.111330986,-0.795580566,10.40193939,-32.61492538,154.9677277,28.17193794
1933,6.350495338,-1.503254056,11.97941208,-44.11569214,128.5872498,29.90192223
1934,7.300083637,-1.221883655,13.01177025,-34.18241119,102.5592575,19.01527977
1935,8.00393486,-0.384447515,13.35360622,-26.46110916,94.29444885,11.67182541
1936,8.628129005,-0.304303646,11.3392458,-19.53740501,90.94824219,18.42532349
1937,9.009752274,-1.745341897,8.603437424,-5.726099491,97.82448578,25.70217514
1938,9.122733116,-1.949317098,7.252979755,24.0773201,107.0459671,22.83345032
1939,8.292156219,-1.752124667,8.965032578,41.42631531,107.6985703,17.8513279
1940,6.038775444,-1.675370574,8.381277084,50.21826172,120.1198502,1.813013792
1941,2.336251736,-1.264343739,4.635696411,75.94744873,114.2858047,-8.733660698
1942,0.126219228,0.521618843,1.49634409,113.334259,57.02527237,0.818487465
1943,0.440124035,2.296754599,2.397401571,66.4365387,29.19078445,-0.1358843
1944,-1.458304048,1.494404316,6.801992416,7.601093292,94.73741913,-16.58786774
1945,-3.807288647,0.379891217,7.943986893,-23.63222694,122.1639023,-20.46629524
1946,-6.946643829,2.393314838,7.965518951,-15.5303154,65.20104218,-12.35650539
1947,-7.424030781,4.055828571,11.65166187,-50.3503952,34.25,10.54316807
1948,-5.272418976,-2.784098148,18.71844101,-119.5999603,14.2672205,-0.579958797
1949,-1.263514161,-2.930216551,10.65832806,-82.45594788,-4.634179115,-6.792883396
1950,0.750433564,-0.919458866,11.10775089,5.212728977,-3.089762688,-2.807075262
1951,0.198485911,0.266709536,10.86364365,13.43467617,-25.91228676,13.47318554
1952,0.979054987,1.074341297,10.48096561,6.328819275,-20.23328018,5.253916264
1953,1.363662958,-0.509807587,10.44715118,-22.54614067,-26.14370155,-8.513955116
1954,-0.436598778,-2.482782841,10.10945225,-27.16910553,-14.42288017,-13.24928951
1955,-1.959681034,-2.95348382,10.09748268,-13.61926079,-11.95158958,1.221631169
1956,-2.036082506,-1.982997656,11.08981228,-10.38671017,1.669635177,7.743433475
1957,-1.854105115,-0.993072987,11.48400307,-11.02119064,4.770541191,-6.907557487
1958,-1.084019661,-0.715379119,11.34301853,-16.77476501,-3.389793873,-9.605991364
1959,-1.314074993,-0.425332576,10.96026611,-0.620794415,-8.988082886,-6.697089195
1960,-0.865512669,-0.029515393,11.27848053,22.88302231,-18.40631104,-3.31647706
1961,-0.490746766,-0.32023862,11.03411674,34.08835602,-25.31600761,-0.414909214
1962,-0.926044226,-1.240119576,11.15162468,39.48298645,-33.21815491,-0.122769222
1963,-0.801617026,-1.489809275,11.20678425,51.61256027,-33.33327103,2.459069729
1964,-0.537629485,-0.825443506,10.91532326,55.9002533,-29.39559364,6.441134453
1965,-0.578677773,0.002361991,10.76912403,56.65265656,-18.44305229,7.814834595
1966,-0.159380957,0.524534464,11.54888535,54.39231873,-4.854114532,11.61998177
1967,0.206249222,0.218162924,12.15559292,43.89015579,0.763750613,11.39240646
1968,0.218945369,0.183883458,11.94360256,31.98480034,-1.153453112,8.151516914
1969,-0.3065961,0.223188162,11.37707806,24.58880234,-8.44201088,4.192578316
1970,-0.702995896,0.064400353,10.8757143,20.61918449,-10.60454273,1.635348439
1971,-0.396704972,0.097560547,10.59778309,19.66650963,-9.423542023,4.532412052
1972,0.150123194,0.26051107,10.83309078,24.68628693,-7.324014664,8.935602188
1973,0.193127677,0.917351842,10.97444344,26.69545364,-4.509698868,11.59930897
1974,0.137398571,1.585663199,10.96710491,22.04579544,-1.382454872,11.88636875
1975,0.173985779,2.074366808,10.75001621,11.5539093,1.809141517,7.849183559
1976,0.191336572,1.954439163,10.90240955,9.831507683,-0.513509154,2.546588182
1977,0.101354435,1.617800832,11.98533821,15.62900257,-10.83828831,-1.190306664
1978,0.152928844,1.291771889,12.78465557,12.2423172,-15.46092033,4.449079514
1979,0.00609099,1.226050377,11.60381126,8.228598595,-10.34768677,10.69234943
1980,0.283823699,0.927832961,10.94450092,8.400845528,-9.903013229,9.620932579
1981,0.774239242,0.540834069,11.16930485,3.258234739,-19.59682465,3.93598628
1982,1.023190975,0.521082819,11.34041309,-5.624560356,-23.47681618,0.759053111
1983,0.577847362,0.406837344,11.73135471,-17.76558113,-28.1819973,2.236240625
1984,0.69762361,0.335459203,11.69597626,-21.79442406,-47.52457428,4.713883877
1985,0.747544289,0.560194433,11.54700756,-25.44364166,-68.23061371,5.978910923
1986,1.040619016,1.246057272,11.22232056,-31.34684944,-92.05934143,5.210052967
1987,1.873824477,1.5378052,10.95031548,-15.99790859,-115.0026169,5.665888786
1988,2.325393677,0.878005087,11.5923233,8.638710022,-130.2894287,4.222789288
1989,2.451394081,-0.129081309,11.52370358,21.24171829,-141.5335083,3.974001646
1990,2.720547438,-0.452368051,9.997532845,25.11531448,-148.9903564,4.754176617
1991,3.191591263,0.492801189,9.1659832,35.46184921,-159.9913025,11.01881123
1992,4.284770966,0.26517266,8.877245903,33.61569595,-176.3913727,12.96260071
1993,5.08403635,0.849286616,9.114003181,29.93785667,-180.6917877,11.6256609
1994,5.753137112,1.79082036,10.0490799,32.28373337,-188.5612335,12.55782413
1995,5.824504852,1.692030787,10.60748959,23.16383934,-195.3442383,15.44339561
1996,5.335804462,0.954960585,9.956794739,7.12494278,-190.3533936,15.24929905
1997,4.54852581,0.235376433,8.699433327,4.432775021,-163.4024811,13.27527142
1998,3.938771963,0.519831419,8.250906944,6.06645155,-134.4068146,13.76980114
1999,4.304164886,0.948671103,8.324155807,0.41340223,-114.8787537,17.41731644
2000,4.315627575,1.12891686,8.28408432,-6.256714821,-96.64117432,14.35909843
2001,4.397826195,1.216811657,8.012694359,-10.69086361,-80.20462799,11.97544289
2002,3.571959496,1.509374261,8.106713295,-16.64195824,-63.38373947,11.84241486
2003,2.914271355,1.811898589,8.641580582,-15.31622982,-56.54608154,13.08169365
2004,2.949507713,1.0679456,9.413298607,-20.42322159,-57.39999008,13.27999115
2005,3.373977184,0.705488086,8.80086422,-23.15922928,-47.55801773,8.446052551
2006,4.047461033,0.386289358,8.911475182,-20.81959152,-37.74052429,3.056818724
2007,4.818553925,0.301350117,8.821326256,-26.03966141,-32.02785873,5.809072495
2008,4.492320538,0.124772906,8.413022995,-43.83158875,-21.67882347,4.305025578
2009,4.445757389,-0.11798884,7.88616991,-44.74896622,-13.39907837,0.90884155
2010,4.659136295,-0.127424911,8.097802162,-35.03455734,0.571837962,1.204884171
2011,4.892605305,0.207707748,7.966533184,-13.35472775,28.3076992,4.258055687
2012,5.481672287,0.476964951,7.187422276,-1.073031545,58.70362473,3.048966885
2013,6.010156155,1.181921601,6.67224741,5.341353893,54.43392563,-1.059166789
2014,5.521653175,1.231436014,6.444907665,-3.850970745,47.16817474,-3.873945475
2015,4.057930946,0.634081542,6.419184685,-9.841165543,62.38633347,-4.835502625
2016,5.047502995,-0.369249076,5.589555264,-31.15729141,92.98143005,-0.443716586
2017,6.209706783,-0.440992892,5.780553818,-48.32670212,121.6916809,5.864926815
2018,6.227080822,-0.561263621,5.511026859,-51.10393906,141.8279724,10.63709927
2019,5.99283886,-0.793864965,6.158700466,-41.66723251,168.2117615,10.69330502
2020,5.334123611,-0.382353038,6.887237072,-24.62254143,171.2628632,8.481190681
2021,5.70040369,-0.191734239,8.793980598,-22.01081848,168.061554,10.60809708
2022,6.997067451,-0.472930253,9.128959656,-37.54161072,160.3531494,14.12442493
2023,7.267811775,-0.679289103,9.760956764,-42.82663345,160.5393066,15.69582462
2024,7.30597496,-0.674221277,9.967211723,-37.73038864,170.7369843,21.3819809
2025,6.659698486,-1.461574793,11.72143459,-39.35671616,178.4935608,31.73011208
2026,6.409754753,-2.828665972,12.21964931,-53.67222214,164.003891,37.66250992
2027,6.960695267,-2.942966461,11.92967415,-25.26455116,132.4779205,28.46462059
2028,7.934025764,-2.272716999,12.29823971,13.85514736,109.0205307,20.6228199
2029,8.784144402,-1.578978896,11.69952488,16.25479507,112.8626175,18.94050217
2030,8.786180496,-1.071413875,9.471185684,15.45748329,98.98335266,14.146451
2031,8.405589104,-1.538401723,6.122292519,40.27608871,64.91845703,10.15400219
2032,7.763533115,-1.317601562,5.576015949,95.28540802,70.8408432,9.344856262
2033,6.349551678,-1.801677942,5.942111015,139.2948914,39.32982635,25.31067085
2034,2.998974085,-1.325355768,3.983857393,123.9808884,-3.841065407,26.18741989
2035,0.105507202,0.745560944,-0.451371402,134.9591064,11.45064449,9.091240883
2036,-0.839352965,1.393233776,3.604591131,114.2826614,77.70558167,-7.207290649
2037,-3.331705332,0.642778456,5.749982834,29.47407913,118.7399597,-14.73916721
2038,-9.198767662,3.217534781,6.49135685,-76.29763794,181.9777069,-45.03898621
2039,-9.019734383,3.749650717,16.40854454,-120.5967865,100.1941605,-36.26262665
2040,-8.193268776,0.888896704,13.72660446,-112.3423157,9.637811661,-3.03533721
2041,-1.998322129,-4.741858006,15.55582523,-115.6768875,-54.747509,-6.619459629
2042,0.482016236,-1.788934469,9.48456192,-37.32300568,-27.76732826,-16.05862617
2043,2.277126551,-0.431897104,10.19964123,38.45787811,-36.31840897,-19.7527771
2044,1.595119715,1.287559032,10.52054977,55.45975876,-11.93036842,-9.867201805
2045,1.78263402,1.039092064,10.63544941,26.06158638,-17.90696716,-3.718016863
2046,0.724557102,-0.453544766,10.44585991,-15.89575291,-7.003538609,-2.174975395
2047,-0.870623946,-1.858736992,9.623022079,-37.10528564,-3.296262026,6.886405945
2048,-1.61972332,-2.886464834,9.594146729,-23.96094704,5.636651039,8.946088791
2049,-2.280909777,-1.178706408,9.766677856,4.270215034,6.412014484,-5.941885948
2050,-1.679608345,0.311415434,10.24296284,2.788021803,12.9442358,-10.78319359
2051,-1.451130033,-0.06750977,10.25903511,-12.09444618,1.768007398,-5.622138977
2052,-1.714005232,0.399787843,9.791110992,-0.310958833,-33.97905731,-10.67075443
2053,0.002697371,0.449050963,10.39001465,25.05719185,-34.24489594,-11.82739258
2054,0.461692274,-0.542169631,11.92877769,27.35725212,-39.79705048,-1.457765102
2055,-0.365863502,-1.708749771,12.5523386,47.09248734,-50.46096802,1.124711156
2056,0.020489074,-2.036631346,12.14627934,63.50627136,-47.95628738,-1.159768939
2057,0.203842938,-1.572072625,11.56345558,52.52275085,-50.48469543,2.656938314
2058,0.033966649,-0.615083456,11.54469967,36.46037292,-48.60024261,3.410478115
2059,0.246282488,0.365873694,11.29540348,34.7041626,-23.51771927,-3.394478083
2060,0.933257163,0.812124074,10.91527081,40.20615768,-0.901565969,-8.462697983
2061,0.861275911,1.130683064,10.85426331,42.90163803,1.723912716,-7.209261417
2062,0.217014059,1.575154662,11.10925865,40.07447433,3.262839556,-1.415378451
2063,-0.171965852,1.83768034,11.36218739,29.70417213,1.325800776,3.253213644
2064,0.168869615,1.741620183,11.77764797,20.36078644,-11.70702362,5.079488277
2065,0.929980993,1.054328799,12.08167648,18.39060974,-22.89170074,2.79697299
2066,1.0861696,1.094659925,11.76087761,16.74655914,-23.38368034,0.661328137
2067,0.522673905,1.638281226,11.22079468,14.88760948,-10.04905128,-0.789115369
2068,0.222254559,2.053642511,10.95997143,1.715577126,1.065373182,-1.345486403
2069,0.508118212,2.501681328,11.06094742,-15.10381985,3.019745827,1.763608336
2070,0.846143007,2.506025553,11.35637093,-28.75779724,-7.064439297,4.499812603
2071,1.171626449,1.563325405,11.51698494,-33.27106094,-14.57766247,4.122542381
2072,1.174772143,0.548131943,11.44136715,-28.42060471,-11.69321632,3.984849691
2073,0.873485208,0.338387609,11.59429646,-19.26366615,-6.450945377,2.976917028
2074,0.483898252,0.677561224,11.77924061,-13.76591015,-7.207669258,-0.237372294
2075,0.425624371,1.07637918,11.41505718,-12.97011662,-9.369338989,-3.712103367
2076,0.65570128,0.795006633,11.11308765,-15.98154831,-16.57949066,-4.05303812
2077,1.089505315,0.30737859,10.88774681,-20.169487,-28.76405716,-0.938274205
2078,1.379225492,-0.13045986,10.84221458,-19.73532867,-38.096035,1.262951255
2079,1.478168488,-0.614776969,10.80660057,-13.43404865,-43.89808273,1.42417264
2080,1.430201769,-0.874248028,10.73111534,-2.792328835,-51.48893738,1.53324163
2081,1.424583912,-0.465223759,10.92581558,2.257510662,-64.11092377,0.316308618
2082,1.555078387,0.047917113,11.21422768,-5.78276062,-81.59374237,0.185875759
2083,1.818856001,0.412681043,11.18585205,-13.73884583,-96.13749695,1.143875599
2084,2.442029715,1.079832792,10.75319862,-21.04889679,-112.9513855,3.632543564
2085,2.96006465,1.161995292,10.3082552,-9.157493591,-134.6129608,3.588582754
2086,3.679477453,1.266830325,10.00978947,16.73900223,-151.5747833,2.004678249
2087,4.012603283,0.853771031,11.31162834,35.76549911,-162.7536011,7.210215092
2088,4.858765602,0.279482603,10.66320133,59.46793747,-177.7938385,17.92085838
2089,5.536674023,0.174016207,9.947512627,42.03146744,-162.8658752,21.95252037
2090,5.424785614,0.29305321,8.851753235,30.73461533,-144.4850311,20.77152443
2091,5.639330864,0.949437499,7.941583633,19.98782349,-133.1696625,18.38137817
2092,5.769443512,1.332822084,7.776151657,10.24600315,-134.8442993,19.7219696
2093,5.335340977,1.113056302,7.328850269,4.621695995,-143.1851501,17.27907562
2094,4.753218174,1.053256154,7.077738285,-2.975504398,-139.3776855,11.95810699
2095,4.636733055,0.594346821,7.811269283,-8.303621292,-124.3766937,10.74516582
2096,4.533843994,0.460183203,7.984947681,-14.91116238,-95.39912415,12.76500893
2097,4.800471306,0.866948128,8.462300301,-23.86512947,-68.72344971,13.78630447
2098,4.51335001,0.87984097,8.911942482,-37.48846436,-59.49165344,11.48990917
2099,4.002398968,0.908750534,8.892373085,-43.352108,-52.44470978,6.191299915
2100,3.870015144,0.327031642,9.255503654,-58.42161942,-45.09424973,1.216901898
2101,3.953788519,0.108401813,9.237493515,-74.00015259,-36.68225098,0.138010949
2102,4.042905807,0.004040442,8.64149189,-70.55313873,-27.41000938,0.592286348
2103,4.497152805,0.17143932,8.36764431,-57.06165314,-21.29981422,-1.796319127
2104,4.864092827,-0.015468989,8.235799789,-45.12989044,-11.28566742,-1.907033443
2105,4.763548374,-0.589960217,7.95199728,-38.09081268,9.297645569,1.892218947
2106,4.85189867,-1.189059615,8.185594559,-23.70253944,21.33123779,2.978992224
2107,5.509932995,-1.991883516,8.126056671,-9.473252296,31.16300392,0.466095269
2108,5.899445534,-1.774770856,7.822216988,3.743335485,54.41662216,-5.940461159
2109,5.899965763,-0.376209557,7.124964714,34.70728683,80.77653503,-7.230540752
2110,5.167706966,0.732691169,7.091326714,44.53932953,79.72351074,-2.144640207
2111,4.009130478,0.241269708,6.509206295,34.4244957,78.60173798,1.830849767
2112,3.13683033,-0.804412723,7.855300426,9.308024406,90.95935059,0.263287097
2113,3.326701641,-1.609600186,5.585536957,-13.63836098,112.5634537,0.137674481
2114,4.009562492,-2.035715103,6.138164043,-22.28465271,130.072464,4.487350941
2115,4.188797951,-2.120785952,7.384133816,-20.31100655,143.0791321,10.27198982
2116,4.138587952,-1.938343525,8.138336182,-12.35527134,149.8117828,12.44947624
2117,4.659106255,-1.658747911,8.644956589,0.449649185,153.0715332,13.4245863
2118,5.238975525,-1.197235107,9.288127899,5.624441147,154.1181946,11.8548708
2119,5.377264977,-0.413882226,10.02847004,6.991166115,153.1156921,12.34966087
2120,5.342122078,0.000225618,10.51785469,-5.375135899,147.4142761,19.34522057
2121,5.660237789,-0.395253658,11.07213497,-24.55027962,129.4809113,27.71053123
2122,6.057198048,-0.980492234,11.29024315,-34.65135574,115.2321396,25.83051872
2123,6.729257107,-1.065132141,11.81724167,-32.63293457,106.2276993,18.89840889
2124,7.381812572,-1.03685689,11.80427933,-28.59659004,102.6303177,11.06533813
2125,7.937382698,-2.021853209,10.69650841,-18.86927032,90.34757233,-2.132916689
2126,9.521485329,-2.054639101,11.33415318,4.52825737,86.64446259,-15.97863197
2127,10.43229008,-2.058292389,12.20118618,13.11700535,100.3560028,-17.94550514
2128,9.143133163,-0.570678055,10.07670784,28.60606384,104.6697006,-3.593540668
2129,5.949630737,0.822973073,6.219403267,56.87370682,107.4371109,8.689805984
2130,4.833518028,1.142447948,4.736906052,84.94776154,32.78133774,27.97837639
2131,5.60099268,-1.368566155,4.932519436,109.8719101,-24.29428864,33.55767059
2132,2.550962925,-0.520645857,2.238280296,114.8569794,-81.54117584,19.83690071
2133,0.42965591,1.924871683,1.898041129,86.9381485,-56.0414238,2.229413509
2134,-0.290360063,1.284939289,2.2625494,-58.75244904,35.57490921,-7.626393795
2135,-2.311943054,1.401605129,2.553725243,-83.85929108,218.2066956,-21.15584946
2136,-6.035449028,0.830325007,13.45443916,-54.74193954,343.9943848,-40.7334137
2137,-9.082443237,0.374158233,15.22708035,-124.2010345,134.9786224,-24.4779644
2138,-9.674519539,-5.696861744,17.91116714,-138.6975098,-13.99042225,-1.984825492
2139,-4.195790768,-4.313615322,8.311723709,-19.48243523,-35.95347977,10.37549496
2140,-0.478598654,-0.377493262,9.283219337,91.03931427,-28.21206093,6.420593262
2141,1.726857543,1.235901475,9.974863052,79.85829163,-54.37348557,12.5683794
2142,3.287959576,1.876465201,10.72631454,28.45128059,-37.208992,-0.050246101
2143,3.686852455,0.314293444,10.80045128,-46.46639633,-32.17163086,-4.313976765
2144,0.900503814,-2.084412336,10.34569359,-89.47499084,-26.43455315,-8.270083427
2145,-2.824304104,-3.72719121,8.764615059,-56.73500061,-4.097201347,7.009649277
2146,-4.269712448,-2.549777269,9.38014698,2.872586727,3.629390955,8.733657837
2147,-3.723623991,-1.263160229,10.79253578,37.19235992,7.945650578,0.218656734
2148,-1.377601862,-0.650180042,11.50819111,36.9253006,3.736926794,-13.60357571
2149,0.492913395,0.58054769,10.92359447,20.65501404,-14.30381966,-19.08407402
2150,1.42883265,1.610527158,11.23616695,3.687873602,-26.71750832,-8.668167114
2151,0.735596716,1.176676035,11.58596706,-5.988840103,-31.12380981,5.364880085
2152,-1.273563981,0.20851858,11.54452705,1.492355824,-32.47480392,11.45005131
2153,-1.229439974,-0.832858801,11.9174881,15.79506493,-30.63966179,10.69587421
2154,-0.175435469,-1.736964226,12.00250626,38.01935959,-21.68543243,6.7329216
2155,0.043354861,-2.225307465,11.88529587,45.21286011,-4.141623497,5.10101223
2156,-0.153037831,-2.088703632,11.7017374,42.11095428,2.678798199,7.639113426
2157,0.196911857,-1.412969708,11.69309616,42.7791214,-2.617968321,8.392383575
2158,0.530954361,-0.225523785,11.62438774,44.57946396,-4.177858353,7.294107437
2159,-0.130543903,1.022499323,11.39929771,37.81093979,-3.093159676,7.510739803
2160,-0.746812105,1.699265718,11.3321991,30.0242424,-4.588216782,7.058089733
2161,-0.408940762,1.542125583,11.29244709,24.40496063,-3.826591015,5.370508194
2162,0.384122103,0.695695519,11.28379154,23.00975418,0.946749687,1.296594262
2163,0.644102871,0.063398853,11.31300163,27.66983986,8.70639801,-1.788969398
2164,0.099195026,0.374739826,11.2799511,27.2187233,16.03611374,-0.37774381
2165,-0.644922078,0.7886042,11.53730774,17.28585243,18.02177048,5.389929295
2166,-0.744192243,0.87817049,11.91592598,1.049410701,10.55609608,10.64729023
2167,-0.214739278,0.699685514,12.00737953,-4.914510727,-0.270566314,12.51676846
2168,0.243952304,0.693000078,12.25677013,-2.614758253,-10.83099937,10.73775005
2169,0.365021169,0.961428523,12.25230789,4.236595154,-15.3702755,8.719079018
2170,0.248969227,1.31438601,11.75380516,10.21724606,-12.70252037,8.714315414
2171,0.044007234,1.447800517,11.58106995,8.724413872,-12.96892452,11.38918781
2172,0.307242036,1.457871318,11.00850868,3.206982851,-12.8927393,13.51968002
2173,0.428231448,1.158718944,11.06763172,-14.02585983,-9.025446892,10.22130013
2174,0.376567811,0.75937289,11.04686069,-36.22584152,-7.429754257,4.493455887
2175,0.307980567,0.813828111,10.31370258,-48.39567184,-11.81686878,4.052726746
2176,-0.032364585,0.666812181,9.917471886,-47.31129837,-21.16860962,7.750875473
2177,-0.05295999,0.538955092,9.519119263,-39.34244919,-35.88911438,7.860924721
2178,0.463648707,0.257365167,9.922432899,-31.32943916,-55.71770096,3.537011147
2179,1.353813052,0.365204334,11.02671528,-36.29681778,-76.9989624,-3.815307379
2180,1.774100065,0.738470078,11.37669945,-23.22967339,-105.5998306,-6.580308914
2181,2.069711685,0.747534096,11.27976322,6.842591763,-126.7497635,-6.287578106
2182,2.248665094,0.165062264,11.66957283,35.84476089,-143.6484222,-1.960060716
2183,2.52124548,-0.084696084,11.05973434,52.33668518,-165.0224609,8.803299904
2184,2.594011784,-0.685881138,10.15450001,38.94329834,-177.9796143,21.45479393
2185,3.142338991,-0.214004636,8.995113373,10.58529472,-170.831131,24.87556458
2186,4.002263069,0.241257966,8.702084541,-1.13336575,-166.8256989,18.64327431
2187,4.999787807,-0.095245034,8.302305222,-3.478866339,-160.1776428,8.797986031
2188,5.173475266,-0.773275197,9.048010826,4.132940292,-157.8145599,6.459046841
2189,4.803864479,-1.372277021,9.784747124,5.292495251,-167.7284698,10.82230377
2190,4.092805386,-1.369087696,9.647558212,3.929958105,-173.5935364,10.91426182
2191,4.4060359,-1.208545208,8.99672699,9.309439659,-151.5593414,10.18403053
2192,4.290947437,-1.032694817,8.923891068,10.82557487,-115.7758026,13.82323933
2193,4.278307438,-0.532002866,8.724887848,6.374638081,-89.39897156,18.60881424
2194,4.092705727,0.279193014,8.507174492,2.874827623,-68.95428467,19.56533813
2195,3.473817587,0.86705029,8.708116531,-1.591063619,-59.63352966,19.13117027
2196,3.317989588,1.865269423,8.573734283,-7.94741106,-55.59436035,24.54846954
2197,3.220496893,2.22359252,8.275281906,-3.472039461,-49.60744095,27.46186447
2198,3.546556473,1.353460193,8.423638344,7.432207108,-43.3652916,25.65274811
2199,3.932100534,-0.147126734,8.470387459,10.64981365,-31.66869164,17.10940742
2200,3.973999262,-0.296179652,8.454257011,9.85695076,-15.65699863,-3.970447063
2201,3.818944931,-0.337664157,8.732275963,6.355414391,6.071919441,-15.2006712
2202,4.051129341,-0.463124931,8.546211243,-15.79821587,28.91482735,-14.77758217
2203,4.261218071,0.626847625,8.230892181,-19.82976341,32.19584274,-12.89001465
2204,5.371069908,1.640475631,8.427083969,-18.42922211,37.9561615,-11.04996109
2205,5.840340137,2.067534208,7.582086563,-35.11221695,58.85160828,-14.28798962
2206,4.402650356,2.192643881,7.605581284,-14.66365147,57.51340485,-9.856354713
2207,3.335976362,0.856797814,9.712612152,48.59978867,47.42838287,1.264865279
2208,3.411151171,-1.610216618,7.953156948,31.86719704,71.40720367,8.813970566
2209,4.252750874,-2.391368151,6.18371582,-33.11053467,75.73101044,8.41622448
2210,4.324491978,-2.486032486,5.354514599,-43.02877808,95.04853821,7.217328548
2211,4.580182552,-2.400154352,5.807293892,-19.89126968,128.6469116,5.819201469
2212,4.993992805,-1.459671021,6.732524395,-8.015108109,152.2736969,4.513904095
2213,4.680130959,-0.954841137,7.775503159,-9.652864456,151.8876343,0.999450803
2214,4.992817402,-0.697009623,8.696609497,-2.687190294,152.2421112,1.318688035
2215,5.584756374,-0.762865722,9.705602646,-3.037189245,147.1383667,12.95313358
2216,5.996640682,-0.356892467,11.46186924,-14.84236336,132.0200958,27.65938568
2217,7.00406456,-0.109973639,11.73051167,-20.38022804,128.7274475,38.24195099
2218,8.456459045,-0.661447704,11.81575012,-24.71474648,145.5654602,35.24750137
2219,8.579364777,-2.615175486,12.71922493,-31.68922997,156.1717834,17.340765
2220,4.839734554,-2.402518511,11.03985977,-7.300494671,140.7555084,0.482871592
2221,6.824931145,-1.267813444,12.91648769,27.63390923,137.4328156,3.983274698
2222,9.003657341,-0.815141261,14.60363197,-33.52311325,119.767601,9.494454384
2223,6.657631397,-0.436792701,10.29940891,0.755548239,118.7343445,5.470825195
2224,5.02251482,-1.546463132,6.712671757,74.3711853,80.06195831,24.38040924
2225,5.217443466,-1.697247267,4.660880566,150.1055908,-0.350105017,47.8596077
2226,4.327692509,-1.646228552,5.131472111,194.9504852,-59.5700264,49.21767044
2227,3.616496801,-1.203490853,3.39381671,195.6283875,-119.7768478,16.42565727
2228,2.115520477,0.564273477,5.285007477,144.7248383,-138.0053406,-25.84186363
2229,-0.538020194,2.368084669,3.286594868,39.55079651,-10.13859367,-52.62410355
2230,-0.376114905,4.37927103,2.107501507,-115.5273361,163.3973083,-58.38363266
2231,-4.921135902,6.224205017,2.112511158,-175.790802,248.5100098,-36.66986084
2232,-6.803486347,5.297708511,10.11207962,-105.1751709,273.769104,-17.13414574
2233,-6.649048805,2.619788647,22.83433342,-108.2467041,153.3311157,1.484030128
2234,-6.253671646,-4.629247665,14.8331852,-177.465744,-35.48412704,-0.395781159
2235,-1.087436795,-1.497965574,10.27931499,-78.19149017,-31.67817879,-23.84177399
2236,1.237792134,-0.522262454,11.06101704,0.00502013,-41.96862411,-23.43463898
2237,1.428405285,-0.69716996,9.823077202,-2.785491467,-38.13568115,-2.348933697
2238,0.310500979,-1.427664876,10.20426369,-9.038909912,-10.7165947,9.798755646
2239,-0.590723157,-2.430433035,10.38279915,-22.12434387,-13.48391056,13.68917751
2240,-1.155236959,-2.04793191,9.866616249,-28.65521622,-21.95044518,-0.055202022
2241,-1.389136553,-2.149608374,9.68915081,-6.511321068,-23.08810616,-11.22693729
2242,-2.230990171,-2.532175064,10.46771622,17.95116997,-2.630908012,-7.067327976
2243,-1.876631498,-1.530511498,10.67963791,29.01095963,3.887001753,1.855140209
2244,-0.436431646,-1.341007352,11.19240093,12.25290108,0.248116821,9.643745422
2245,-0.591187298,-0.300395876,11.26032352,-1.252431035,-21.59076691,5.348670483
2246,-0.880006313,1.468803287,10.81971931,12.8215189,-42.97984695,-10.57921886
2247,0.001417823,1.57919848,11.0728035,36.4871521,-45.38629913,-16.2975769
2248,0.061505724,0.484876156,11.60221386,48.86608124,-38.45210266,-6.910228252
2249,-0.194879889,-0.935969651,11.89393616,52.12756729,-36.43514252,5.531986713
2250,-0.667298436,-1.146221757,11.59624767,49.31360626,-32.6926651,13.62509632
2251,-1.138010263,-0.695428371,11.1399889,56.59317398,-18.37485313,8.148168564
2252,-0.698602438,-0.337680727,11.55917168,65.50848389,-2.444212198,-2.502149105
2253,0.197483808,0.163456798,12.1803751,62.80556488,-3.474584341,-2.732471466
2254,0.551714361,0.797241688,12.6958971,49.74772263,-11.3122797,3.885854006
2255,0.285539091,1.691249251,12.44621277,38.51911163,-18.22650719,7.229871273
2256,0.21146071,1.908218265,11.7728281,27.72627449,-19.39825058,5.716804504
2257,0.275279135,1.539156318,11.11506748,16.24947739,-19.10128593,3.451985121
2258,0.129536539,1.215793252,10.65364647,14.0866003,-17.4798851,2.564834595
2259,0.036948022,1.048978686,10.56329727,15.6314621,-9.556257248,2.08386445
2260,-0.135750622,1.139455914,10.52993107,11.88737488,-8.315841675,0.962500334
2261,-0.154803306,1.18416965,10.69854832,7.094145298,-10.68311977,-0.223963961
2262,0.181101367,1.029720783,11.228158,-1.329100966,-8.688029289,-0.67774421
2263,0.576695323,0.877034187,11.49472332,-9.938016891,-9.106909752,0.808990538
2264,0.8853513,0.856686234,11.55753326,-11.48651791,-12.47719288,2.846457243
2265,0.934185624,1.006608248,11.56980991,-10.68458557,-14.48775482,2.46603179
2266,0.824281454,1.04669416,11.36401081,-5.558273315,-14.1402874,0.427104861
2267,0.338908792,0.849216759,11.34907055,-4.340824127,-11.64636421,-2.299631119
2268,0.034462489,0.656162858,11.77896404,-7.13188076,-12.62950897,-2.607816458
2269,0.073621765,0.872414589,11.42682743,-8.390312195,-12.96406555,0.261313796
2270,0.524767756,1.199204922,11.07017612,-14.06412125,-10.48219395,3.644922018
2271,1.105228662,1.173241138,10.87559032,-24.96407318,-13.54177475,5.694936275
2272,1.399557114,0.962201416,10.7329483,-36.13743591,-19.31818199,5.352138519
2273,1.349489808,0.608941913,10.52110195,-42.64646912,-23.86033249,4.075283527
2274,1.263823628,0.229581505,10.84428406,-47.41250229,-27.15034103,1.555667639
2275,1.35573256,-0.333918333,11.61491108,-49.90831757,-36.29333496,-1.476009011
2276,1.212357044,-0.672428429,11.6826725,-28.02311897,-56.0370369,-2.217200279
2277,1.060699224,-1.458554268,11.09629536,-17.80480194,-81.0851593,-5.86023283
2278,2.053808689,-0.026779156,8.244854927,8.690816879,-118.1347046,-2.265049219
2279,3.355739832,0.657318354,6.45419693,32.08899307,-132.798111,0.954122901
2280,4.136572361,-0.042850118,8.01674366,26.43296242,-116.2544403,1.377442956
2281,4.673774719,-0.922402084,8.175146103,12.21291924,-114.0413971,-4.958969593
2282,4.891689301,-1.294955611,7.676605225,-2.076664925,-105.1584167,-17.02624321
2283,5.155291557,-1.367612004,8.953613281,6.424580574,-112.3059692,-24.91698647
2284,4.969637871,-0.375097036,10.26331043,19.53839493,-129.8282318,-22.20700264
2285,4.322986603,0.817890167,10.23694515,28.62432289,-138.6539764,-5.386334419
2286,3.739858627,1.022163391,11.02429008,26.64542198,-145.6961823,5.944097519
2287,3.851029634,0.978576958,10.43145084,18.88312721,-144.3632202,3.579213381
2288,4.15312767,0.729556859,9.186023712,3.695913076,-131.4418182,0.022380458
2289,4.656394958,0.420688331,8.493082047,3.708487034,-122.8849792,0.631162524
2290,4.826463699,0.027766014,8.683577538,8.041671753,-115.0191193,6.084602833
2291,3.430287361,-0.181677908,8.918706894,6.410544872,-96.05065155,10.11709309
2292,2.818845749,0.041470051,8.590730667,5.108439445,-75.09315491,5.350842953
2293,3.699743986,0.264192879,8.858451843,6.75129652,-54.46854782,-1.557761431
2294,4.202580929,0.653199136,9.066162109,-5.949138641,-42.23412704,-3.574569702
2295,3.248487949,0.910925269,8.536996841,-20.54044724,-36.24697876,-2.560927153
2296,2.893409014,1.30758512,8.636956215,-14.91825008,-36.8059082,1.817340016
2297,3.192296267,1.426749468,8.766526222,-7.536271095,-23.6073513,4.603296757
2298,4.062694073,1.503330708,8.622885704,-14.49646854,-7.16239357,2.742924452
2299,4.462581635,1.154088497,8.576242447,-29.22476768,-2.562776089,0.976711214
2300,4.192577839,0.350883305,8.369067192,-37.41553116,-2.286950111,-2.807620525
2301,4.367994785,0.010345537,8.664867401,-32.38151932,1.320660233,-9.960351944
2302,4.652786732,0.252859175,8.594781876,-21.22409248,21.12158585,-15.65581799
2303,5.926727295,0.539510369,8.618934631,-15.75923729,40.59739304,-17.86260796
2304,6.186459064,0.774112642,8.931424141,4.089662552,53.58381653,-14.0111351
2305,5.558890343,0.222899765,9.511603355,14.11476707,68.32585907,-6.826657295
2306,4.491518974,-0.606365025,7.876955509,12.1488533,75.82370758,0.118230671
2307,4.388259411,-0.986786366,5.971292973,-15.84922028,92.78020477,1.762004018
2308,4.879995346,-1.337213635,5.545476913,-20.97877693,109.9322968,0.832315028
2309,4.181101799,-1.180062532,5.518997669,8.745649338,131.9076538,-3.398303986
