PacketCounter,Acc_X,Acc_Y,Acc_Z,Gyr_X,Gyr_Y,Gyr_Z
599,-0.480511099,-0.140567079,9.465489388,9.498122215,32.98645782,11.57357979
600,0.21428287,-0.220375806,9.349862099,-2.197914839,36.34343719,15.62415886
601,0.75749743,-0.575462759,9.525436401,-10.29012299,33.78393555,17.0864296
602,0.714259326,-1.271615028,9.897353172,-21.612957,38.55374527,21.75000572
603,-0.575120091,-1.452094555,10.10041523,-36.67339325,32.62205124,16.92425156
604,-1.185919404,-0.811576188,9.75169754,-33.01580048,40.79718018,11.71789837
605,-0.107630804,-0.676684618,9.620405197,-20.78772926,41.24087143,13.07855797
606,0.72131294,-0.656940639,9.48343277,-8.355700493,39.7205925,17.27057838
607,-0.220940828,-1.202948093,9.694538116,-13.22571659,33.30506134,20.99487114
608,-0.902283192,-1.21800971,9.491541862,-24.14937782,34.82394409,14.0329895
609,-0.449562699,-1.328434706,9.377916336,-26.10388756,38.17326355,17.42361069
610,-1.250592113,-1.557060957,9.885245323,-31.993433,35.39230347,18.00530434
611,-1.85248661,-1.545825958,8.967023849,-35.06799316,29.07574654,13.42463684
612,-1.583681822,-1.335810065,8.286190033,-23.57971001,25.04809952,12.15373611
613,-1.241919756,-1.385255694,8.499883652,-21.63059425,15.87542248,13.26259899
614,-0.94399631,-1.495674014,7.73351717,-15.39044857,14.69559288,11.87982941
615,-1.346286178,-1.959564686,9.17075634,-22.08805275,13.63108253,9.697678566
616,-2.131766796,-1.990014195,8.899753571,-22.05857468,9.047724724,8.825469971
617,-2.26806736,-2.254231691,8.763964653,-24.38829231,5.945765972,6.770394325
618,-1.47772038,-2.112245321,8.913272858,-37.01945496,2.036924124,5.233878613
619,-1.081593871,-1.687554479,9.398076057,-39.49423218,2.371986151,5.965621948
620,-1.305754066,-0.837581396,9.964028358,-49.12224197,-2.291485548,6.696505547
621,-1.591503501,-1.701370239,9.650554657,-52.10325623,-18.96742439,3.883958578
622,-1.66475749,-3.249459028,8.913036346,-48.25588226,-31.16517639,-1.456867218
623,-1.239581227,-3.445873022,9.010463715,-51.97255707,-40.73765564,-3.624444962
624,-1.018759012,-2.951690674,8.883927345,-51.11046982,-45.32660675,-4.52106142
625,-0.722660542,-2.899469137,9.350808144,-49.56394958,-52.83229828,-2.72382021
626,-0.690886617,-3.498440742,9.510704041,-54.0100441,-62.43622971,-2.081619501
627,-0.152109563,-4.35966444,9.740661621,-55.11591339,-65.33679962,-2.254001379
628,0.197292984,-4.91191864,10.12133121,-47.29983902,-71.15022278,-5.304738045
629,0.672694802,-5.326702118,10.03756809,-35.83913803,-74.99920654,-7.966417789
630,1.017429829,-5.845408916,10.22191429,-19.16861916,-87.06625366,-10.59088802
631,1.170734644,-6.231813431,10.29274368,5.865736008,-99.44667816,-15.08480072
632,1.27658546,-5.927463055,10.7838974,27.21853828,-110.2500992,-20.9513588
633,1.814815521,-4.462296009,11.22763538,29.88702011,-115.92733,-28.92923927
634,2.608498335,-4.006874084,11.92678642,47.6252861,-119.4716873,-31.1006546
635,3.039624691,-3.380383968,12.94131565,31.52358055,-128.9653168,-24.34570503
636,3.202392578,-2.769684553,12.29564381,14.15226746,-136.245163,-16.99140167
637,4.317353249,-5.104805946,12.48220253,-14.87755585,-129.382431,-18.71877289
638,5.265293121,-7.395018101,12.46139431,-3.730060577,-120.6956482,-22.78101921
639,5.740429401,-6.62663269,12.85329342,6.726271629,-106.1444778,-32.60292816
640,6.17239666,-3.738467693,13.21786118,9.953667641,-96.49240875,-35.78622055
641,6.925418854,-3.240724564,13.04100704,8.847045898,-81.73696899,-27.84746742
642,7.570869923,-4.465878963,11.84834385,7.594739914,-52.47654724,-15.50742912
643,8.280785561,-4.344256878,10.1891098,16.5174942,-29.02374268,-3.901072502
644,8.780138016,-3.761700153,10.45696068,28.09031105,-7.506210804,7.26758194
645,10.40086842,-3.899767637,10.15471077,7.184298515,34.2541275,9.705892563
646,11.02414131,-3.653145313,7.779521942,8.478632927,74.35009003,8.439432144
647,9.035241127,-2.88566184,5.995026112,32.04230881,104.0425034,11.75068665
648,8.158236504,-2.549438715,4.804306507,54.62314987,116.7514877,17.19184113
649,9.144657135,-1.745675325,3.607525349,58.38667679,141.1378784,20.63953972
650,8.858203888,-1.412720203,3.536211491,50.19292068,161.4923706,25.07597923
651,6.979902267,-1.487293005,1.925113678,34.88448715,191.3656006,29.43808746
652,4.038113594,-1.176682711,2.148602486,27.45338821,232.7093506,28.63199234
653,-0.438241392,-1.104664922,3.619360924,28.2054081,263.8977661,34.67453003
654,-2.310513258,-0.104840122,5.901341438,43.38537979,255.9593964,46.60205841
655,-3.312963247,1.15982759,3.977934837,21.74304581,251.8652191,63.21536255
656,-5.30284977,0.218287796,2.705243349,3.599519968,251.1194153,60.06890488
657,-5.827712059,-1.223334074,4.853480816,-25.27367783,248.8746643,51.38594055
658,-4.490924835,-1.560782671,7.78523922,-41.69525909,225.1547546,52.64285278
659,-5.815425873,-0.264590681,9.954260826,-22.16318893,182.4734344,50.88660812
660,-7.230630875,-1.662400484,5.528741837,-1.127831101,112.4812012,47.20648575
661,-6.179541588,-2.824068308,6.106094837,29.15558052,84.88858032,29.2807045
662,-4.814357281,-1.547138333,6.813191891,27.93314552,72.09736633,18.63615608
663,-4.953430653,-0.836002588,8.371853828,11.90479374,65.24258423,24.35613823
664,-5.63285017,-0.429799885,9.677044868,2.630075693,51.94734955,21.48744392
665,-4.4430089,-1.23917985,9.679543495,6.57881546,42.04764938,13.8392725
666,-4.564857483,-2.361305714,9.004639626,9.409972191,23.46713448,14.09143734
667,-5.730924606,-2.242606878,8.130529404,18.18510246,8.111907005,6.069022179
668,-6.183230877,-2.094876528,8.729868889,22.65792847,-3.996357441,-1.862213492
669,-4.723957062,-2.137453794,9.60722065,22.19870377,-23.15720367,-3.828318596
670,-3.646212816,-2.243343592,10.17858887,28.64262962,-40.50427246,-3.790674448
671,-3.669181824,-1.888986707,11.46541882,37.18492508,-66.26239014,-8.404846191
672,-3.131765127,-1.950354218,12.09562778,41.05609512,-84.04660797,-24.20458412
673,-3.154258251,-0.024163015,12.74650669,46.22506714,-87.61801147,-31.0507412
674,-2.268546581,1.546875358,13.10663414,12.77838421,-98.11658478,-28.16670418
675,-0.596797109,-0.457823187,10.90504932,-11.82446098,-102.9437485,-21.36590004
676,0.600683689,-5.110005379,10.41387272,-7.653172493,-96.78237152,-24.62158394
677,-0.306766719,-3.970646381,9.030050278,-25.07028389,-88.19205475,-30.21040916
678,-0.813962579,-1.449200153,8.951727867,-10.8982563,-85.17131042,-29.04101181
679,-0.079645365,-2.832036972,10.48345757,-9.948892593,-86.63314056,-30.72788811
680,-0.733765364,-2.541886806,10.63105392,-5.047321796,-98.1272049,-27.47617531
681,-0.673780918,-1.23590529,10.83650208,-5.75189209,-107.7185211,-29.04906082
682,-0.025745332,-2.08595252,11.34086514,-9.829212189,-111.3372498,-24.34075546
683,-0.793754578,-1.973307848,12.56115627,-17.80503273,-126.1056366,-24.72717285
684,-0.619939625,-1.100772262,11.355196,-26.22011948,-134.3469086,-26.57846642
685,0.670237362,-1.771666646,11.59659958,-26.16433334,-137.937561,-16.04729652
686,0.68938607,-2.852489948,11.32905769,-39.81975937,-149.0978699,-14.66799736
687,1.049670219,-3.209300041,11.22885895,-37.03080368,-144.7257843,-13.03383732
688,1.745696187,-3.053178787,11.56072712,-28.68560028,-140.5046539,-14.44022369
689,2.480071306,-3.110290289,12.20059967,-21.39389801,-121.4303818,-9.979572296
690,1.252669096,-2.703492641,12.06384373,-19.11348724,-117.138031,-15.54700851
691,1.705927849,-2.495388985,10.81505585,-2.398282766,-109.0734329,-11.75328255
692,2.977334976,-2.910665512,10.63171291,5.043206215,-115.4470291,-8.445150375
693,3.769238949,-2.736490726,9.967071533,17.18793106,-102.3443222,-0.299884856
694,3.683307886,-2.648437977,9.94949913,27.73164368,-83.0676651,-0.700891256
695,3.915765524,-3.426179886,9.889347076,11.91989231,-65.15327454,-4.794002533
696,3.524721861,-3.597104311,9.743718147,12.54162121,-48.65285492,-6.456123829
697,2.764430523,-2.688872099,10.18550587,16.02089691,-34.66178131,-4.349993229
698,3.308092356,-1.899164557,10.20468807,21.04487228,-30.63721275,-0.61967665
699,4.043184757,-2.200256109,10.27535629,8.594553947,-29.43177795,1.095093608
700,3.620569229,-3.297147751,10.03589821,0.184738293,-21.04740906,1.297970414
701,2.992756128,-3.097105265,10.23544788,7.565721989,-13.22806168,-3.161710978
702,3.536786079,-1.917143464,9.972295761,4.090413094,-5.128130913,-4.079239368
703,3.574963093,-1.019071698,9.440558434,3.052239656,-0.760729074,-1.003857613
704,3.007418871,-2.301842213,9.573881149,-2.899434805,-2.408759594,-3.545732975
705,3.279651403,-3.149168015,10.10444736,-0.884739757,8.483242035,-4.372588634
706,3.366847992,-2.25922966,9.385495186,5.228277206,8.08096981,-3.12942481
707,2.858314991,-0.662552834,8.786306381,15.74774265,-13.56368637,4.201852798
708,2.867118835,-0.952257276,9.667969704,5.579957008,-16.21514893,3.780918598
709,3.134613752,-2.694769382,9.540748596,-11.42115021,-14.07299042,-1.551785588
710,3.422751188,-3.445449591,9.852767944,-7.271309376,-12.24800205,1.992855191
711,3.682482243,-2.590632439,9.983500481,10.29216385,-9.551361084,5.865696907
712,3.757418394,-1.880047321,9.86314106,20.52597618,-4.671488762,6.248906612
713,3.593654156,-2.153105259,9.723988533,16.1298275,-7.879193783,4.272965431
714,3.722589731,-2.432148695,9.393933296,8.785637856,-4.11601305,3.06276083
715,3.444839001,-2.005088329,9.141222,7.699491978,1.125198007,3.075951099
716,3.319150448,-1.185025692,9.255569458,5.149881363,3.047463179,2.936214209
717,3.36724925,-1.033947468,9.608845711,-5.618281841,5.681474209,3.125326395
718,3.369413614,-1.996150851,9.546766281,-13.36128521,5.163888931,1.115312219
719,3.151585579,-2.49304533,9.563061714,-8.559882164,-0.628855944,3.44707942
720,3.007030964,-2.467840672,9.399517059,-0.997268915,-3.003716707,2.097929955
721,3.189363956,-2.321719646,9.282653809,5.247255802,-4.358731747,-0.10417968
722,3.445051193,-2.180570364,9.355251312,6.10987854,-4.478355885,-0.434301823
723,3.479629278,-2.113223553,9.362046242,3.950996399,-7.312131882,-0.95500797
724,3.351054907,-2.314078331,9.558992386,2.039353609,-7.254042625,-1.805401087
725,3.145848036,-1.934052587,9.529611588,4.674312115,-8.178470612,-1.743930697
726,3.286396027,-1.588043094,9.339314461,8.106993675,-10.54281998,-1.203989744
727,3.629765034,-1.806123376,9.254758835,7.196857929,-10.2374773,-2.533750296
728,3.504334211,-2.108997583,9.39034462,7.458577633,-12.58478928,-2.725135565
729,3.239963293,-2.226593018,9.604111671,6.112895966,-9.322443008,-1.82323432
730,3.180032253,-1.882092476,9.987522125,2.829883814,-4.556698799,-0.968960643
731,3.343931198,-1.890118718,9.909675598,-0.290159911,-6.434852123,-1.868196964
732,3.390853643,-2.27593112,9.730760574,0.778139532,-5.966959,-4.253827572
733,2.87485671,-2.308637142,9.661577225,4.979750633,-6.41414547,-3.219011307
734,2.759572506,-1.809600711,9.692562103,8.157661438,-6.969545364,-3.093996048
735,2.871732712,-1.830166221,9.71732235,5.416896343,-7.639945984,-5.324351311
736,3.143894672,-1.727098465,9.852854729,-0.306212693,-6.430287361,-6.492871284
737,3.075161457,-1.388188958,9.952636719,-5.761692524,-5.524147987,-2.609832048
738,3.164218664,-1.44380641,10.12190819,-9.940894127,-4.083920956,-2.453979254
739,3.294396877,-1.598545074,10.22027206,-17.07239151,-2.340939045,-5.062994957
740,3.502214432,-0.869932234,10.2656374,-29.35327148,-3.083893776,-0.430973411
741,3.591340303,-1.132158041,9.801710129,-32.13179016,-5.417874336,2.020382166
742,2.93705678,-2.330861092,9.747832298,-30.97272682,-1.125925303,-2.772456408
743,2.663663387,-3.070250273,10.38891315,-35.98752975,2.370709896,-5.837360859
744,3.355469942,-3.08015871,10.12028599,-39.9730835,-1.626262069,-1.846340418
745,3.320645332,-3.033804893,9.466423035,-22.98293495,-3.353451729,-1.370243669
746,2.690496922,-3.014932871,9.636108398,-12.60558033,2.493263483,-4.190944672
747,2.238776445,-3.153273344,10.02221203,-12.82082939,6.862613201,-3.392955065
748,2.482242823,-2.714843988,9.994276047,-15.6971035,7.268679619,-4.853674889
749,2.519037008,-2.550037861,9.515992165,-10.38482666,1.964244843,-3.627514839
750,2.310193539,-2.684736729,9.25729847,0.354383707,2.02261591,-2.145498991
751,2.398456097,-2.579342842,9.020519257,8.202949524,1.085152745,-0.51248461
752,2.769541502,-2.487883091,9.321911812,7.699659348,5.3861413,0.657727897
753,2.979626656,-2.478223562,9.279319763,5.136116028,9.522805214,0.125976101
754,3.003821373,-2.592201471,8.961817741,9.926439285,9.843557358,-0.303465903
755,2.989719152,-2.432084322,8.857826233,13.64479065,11.62973404,0.089471668
756,2.946004391,-2.23371172,8.556193352,13.45601273,12.28800678,0.623432994
757,2.965759039,-1.843124628,8.619193077,12.72846699,9.503172874,1.723729849
758,3.127183199,-1.77167666,8.315260887,7.78833437,8.701249123,3.545280218
759,2.92296958,-2.105390072,8.859926224,-1.280815005,12.55932903,4.202796936
760,3.084445238,-2.513301373,8.346077919,-3.861281395,4.626313686,-0.250581861
761,3.556254864,-2.173463345,8.752698898,-8.738172531,5.548154831,-4.866504669
762,2.827948332,-1.970361471,8.704130173,-13.58263683,7.510763645,-0.387193888
763,2.646406889,-2.149312973,8.36187458,-8.188016891,3.17553997,-1.628923178
764,2.802689314,-2.211965322,8.81140995,-7.978485584,-1.467851281,-5.689734459
765,2.903771877,-2.136933565,8.263295174,-8.194274902,-5.302484512,-3.636698008
766,3.252598047,-2.57217598,8.484862328,-9.445416451,-5.679912567,-1.657244682
767,3.309998274,-2.846756697,8.597482681,-12.01613808,-9.049339294,0.664650083
768,3.541056156,-3.118017435,8.976148605,-13.6290741,-7.309479713,2.611076117
769,4.065475464,-3.558980942,9.618472099,-15.2650547,-6.255971432,3.49400425
770,4.219079494,-3.256307602,9.873794556,-17.43614006,-9.486112595,-0.305162966
771,3.931133986,-3.116026878,10.03940487,-5.694847107,-11.51860237,-5.469378471
772,4.291466713,-3.076463223,10.47765827,-3.952646732,-16.80127525,-10.90299511
773,5.485755444,-2.804841518,9.872433662,7.762543201,-26.83024788,-20.46874428
774,7.807720184,-2.516195297,9.874336243,27.92591095,-37.33253479,-21.00704384
775,10.71756554,-3.436167479,9.824278831,9.599617004,-28.71499062,-10.54636002
776,12.13410473,-3.214430094,7.831454754,-16.77599716,-11.01758862,-1.692272067
777,12.73532295,-2.893063068,7.585389137,-7.849225998,5.246340275,5.315008163
778,12.47284603,-1.366041183,7.549794197,-6.447725296,37.00906372,12.24104786
779,11.98242474,-0.431100547,7.110417843,-8.80664444,48.13287735,17.29559898
780,11.43759441,-1.082257152,5.768649101,-4.166090965,59.62669754,18.63995743
781,10.49228573,-1.873105764,6.221148968,12.94275475,113.9914932,23.59265709
782,5.202610493,-1.962595105,4.821094513,17.6695652,91.70256805,38.00631332
783,2.426452398,-1.005728483,4.971693993,-6.039752007,86.01242065,32.59209061
784,0.915671468,-2.245846272,8.94097805,-20.86480904,90.01535797,26.31641197
785,1.884502292,-3.434349298,8.540176392,6.490408897,73.14555359,18.46024704
786,4.049291611,-4.169845581,8.399903297,35.07844925,53.62084198,16.70173073
787,4.111074924,-3.549681187,9.601118088,42.36053848,33.45664978,14.26644897
788,2.45178771,-1.528766513,6.908592224,45.77012634,0.529245675,10.49349499
789,2.356616259,-1.382272363,9.127663612,25.12207603,3.516658306,6.628762245
790,3.009672165,-3.103553534,11.53950596,20.37943077,14.11548328,10.62243938
791,2.129922628,-1.706261992,11.8791008,27.44622803,14.64921379,15.18015385
792,0.084553003,-0.971112132,9.985151291,22.10881805,-8.931354523,9.647724152
793,-0.785024166,-1.988195181,9.248898506,10.56180382,-33.84095383,7.687429905
794,0.592361867,-2.165421247,9.097140312,2.673036337,-43.76480484,4.723846436
795,1.736760736,-1.717979074,9.395346642,6.864365101,-48.27094269,2.932576656
796,1.984412551,-1.549934626,9.840857506,0.141568914,-47.68737411,1.375496268
797,2.298974514,-1.339914322,9.791110992,-4.176424503,-45.32583237,1.126128197
798,2.778414726,-1.455856323,9.570398331,-8.990064621,-50.4654808,-2.414122105
799,3.208380222,-2.054641247,9.090289116,-9.579551697,-44.41197205,-4.186963558
800,2.793799877,-2.132139444,10.3460865,-4.116410732,-37.82269287,-3.589247465
801,2.724800348,-2.084106445,10.31962395,-1.81671226,-39.35888672,-4.251647949
802,3.038849592,-2.095722675,10.53540802,8.801734924,-36.75727463,-7.962088108
803,3.453047514,-2.590605021,10.51831436,8.392595291,-32.60490799,-10.83078861
804,3.405080795,-3.053987503,10.21495533,8.474589348,-30.3026638,-9.465388298
805,3.388373852,-2.647157907,9.979585648,14.69358444,-30.40206337,-6.842832088
806,3.654008865,-2.153327465,9.84529686,13.49899483,-24.57281113,-6.244937897
807,3.86303401,-1.989978194,9.828190804,4.797237396,-16.24327469,-3.125552416
808,4.097808838,-2.106896162,9.917056084,-8.441947937,-6.439585209,0.453953266
809,3.838395357,-2.240964413,9.928721428,-21.46988678,-4.513919353,1.247225165
810,3.700728893,-1.603760839,9.503335953,-26.90451241,-0.933975875,-0.877896667
811,3.792612791,-1.454741597,9.059353828,-22.47537804,4.861894608,-0.471248955
812,4.384507179,-2.493793011,8.41565609,-20.03951454,10.59867573,-1.361650467
813,4.20841074,-1.510113478,7.476221561,-22.30353355,20.51048088,-1.011576891
814,3.417250395,-0.764421403,6.89867115,-16.36470985,20.75312996,5.672989845
815,3.239598036,-1.615262389,7.568306923,-31.53115273,12.71187496,9.588777542
816,4.072722912,-2.609491587,7.272459507,-36.81777191,12.89648342,9.992613792
817,4.358546257,-3.215135098,7.658848286,-27.61483383,29.74828911,9.573041916
818,3.957279205,-1.644122005,8.198169708,-20.1224823,42.95981216,13.26324654
819,3.78447628,-1.015468597,8.916339874,-22.92168045,54.63689423,13.69517994
820,2.964541197,-2.917682171,9.491150856,-37.63788605,65.17381287,9.932126999
821,1.937129021,-3.650747299,8.320968628,-40.0737381,47.08995056,-1.028177977
822,1.121076226,-2.836886883,11.80120087,-42.86563873,28.33514214,-7.286723137
823,1.516469836,-2.948606968,13.73028946,-72.94561768,-38.74918365,-8.601561546
824,2.842085361,-2.696561575,9.698295593,-23.72834015,-91.34997559,-20.4802475
825,3.552129269,-3.923942566,9.682254791,57.25517273,-132.3856964,-38.12387085
826,4.063908577,-3.249480009,9.210324287,70.58683014,-177.879364,-45.01847076
827,3.911417007,-3.328409672,10.32188511,63.28281021,-210.0598907,-51.91166306
828,5.1972332,-3.553421497,9.355225563,75.15723419,-240.2684021,-60.38622284
829,7.457524776,-2.810120344,7.912827969,62.9468956,-261.9952698,-60.95807266
830,8.836400986,-2.313237429,7.50526762,48.60838699,-264.940094,-64.89525604
831,8.520262718,-2.268834591,7.037872791,41.1781311,-254.8738708,-63.63009644
832,7.809311867,-2.731679201,6.723130226,42.32013702,-250.0816193,-60.39989471
833,8.03117466,-2.07578969,6.745281696,47.39160919,-241.4512634,-55.99124908
834,7.321358204,-2.341200113,6.4248209,51.63044739,-222.3270569,-50.76056671
835,6.68227911,-2.618482113,6.791764259,43.68307495,-192.404007,-49.58961868
836,7.185710907,-2.811055899,8.166104317,35.80001068,-174.1614685,-48.36476517
837,6.53952837,-0.651885092,8.269838333,29.14832497,-160.194458,-39.02378082
838,6.679587841,1.257172465,7.213818073,18.97743416,-144.4357452,-23.6211338
839,7.429265022,-0.122627035,6.830832958,7.13517189,-117.2207336,-12.23172951
840,8.596595764,-1.954255462,6.224121094,-2.361723185,-79.65011597,-6.463445663
841,8.988259315,-1.992305636,6.292179585,4.520084858,-52.87799454,-0.200389355
842,8.816428185,-1.94679451,5.984501362,-7.017165184,-24.40389824,1.934806943
843,8.719566345,-2.800463915,5.544763565,-12.83437824,3.902142286,0.203256115
844,8.45928669,-2.275803804,5.708088875,-9.483338356,29.17081261,5.096950531
845,8.741226196,-2.127970457,5.854402065,-8.157721519,49.07138824,12.84079742
846,9.007788658,-2.407027006,5.924701691,-19.07851028,66.05495453,18.31164742
847,9.975168228,-2.602074146,5.430341721,-26.16100883,78.81215668,23.46046066
848,9.67711544,-1.78838706,4.12522316,-38.18557358,108.5082855,30.09311104
849,7.6365242,0.86626482,1.694829702,-46.88996887,135.3069,41.4781189
850,5.644795418,3.663127899,0.051709652,-16.10696983,143.3370209,43.54779434
851,4.694149494,3.082723856,2.705818892,-17.75332451,162.7612915,45.18133163
852,4.149855137,0.524288356,3.022474766,-39.26665878,170.4994812,47.79425049
853,5.895575047,-1.804061413,4.621624947,-34.14122772,179.068573,53.33059692
854,5.695456028,-3.091098309,5.813336849,-21.40667152,189.2410889,51.39697266
855,5.060011864,-2.161513329,6.459757805,12.56639862,185.8720703,36.39513779
856,4.475840569,0.472845554,5.970339298,40.44952011,176.5170746,19.99751472
857,4.619921684,1.512429595,5.710128784,46.51396942,161.4010162,18.2191925
858,5.692389965,-0.414344907,7.101743698,31.22098351,146.5770569,22.78428268
859,6.006480217,-2.093018293,8.12597084,24.32845116,137.8336487,22.4304409
860,5.866978645,-1.151907444,8.792602539,13.31038761,130.5696869,19.73828125
861,7.221483231,-1.040142536,9.29499054,-9.658857346,127.8058014,23.88709641
862,8.379067421,-2.536910295,9.280591965,-12.46004772,135.4091339,29.82945824
863,9.207180977,-3.140074253,9.570033073,20.67540169,139.2873383,21.15499306
864,10.86166382,-2.449821234,10.98815727,34.34326172,122.3196716,18.40675735
865,13.00097275,-2.490805864,12.24094677,-4.755181789,99.53151703,16.53186989
866,13.79207897,-2.42022109,12.34441757,-70.4598465,88.87672424,11.09331799
867,12.33150291,-1.586110473,11.04146385,-61.22272873,45.05678558,16.55494308
868,11.03649712,-0.836274505,9.40474987,-28.08338547,15.04026985,17.91633224
869,9.655802727,-0.29532671,5.932139874,-19.59216499,31.50375938,23.42534637
870,9.723158836,0.063196085,4.186162949,-20.39797211,36.44717407,37.69366837
871,8.110207558,-2.170758247,4.434066296,-18.1465168,57.65824509,51.14931488
872,6.498696327,-5.430105686,7.641534805,-19.05971146,146.8178711,55.606884
873,1.375759959,-1.656623721,9.36356163,4.264222622,204.1452789,48.21233368
874,0.443153828,-3.198444366,7.788304806,4.848277092,168.3231354,43.08392715
875,0.962220132,-6.041136265,7.897243023,-6.125045776,160.5200043,41.28850174
876,1.129758358,-3.967216015,6.876038074,57.29440689,146.4346466,33.86594009
877,1.057146311,-0.240647972,6.769631386,72.6268692,129.8017426,23.04053307
878,-1.061343193,-0.543870687,7.359970093,44.22687912,118.5024719,20.78370667
879,-1.638765454,-0.381620586,7.082818031,28.73211288,112.3983765,21.82833099
880,-2.024610519,-0.414907098,8.208888054,8.323433876,110.0482483,21.87288666
881,-3.160943747,-1.433055401,9.10487175,-18.3998661,107.4791412,18.78433228
882,-3.383677244,-1.487325549,8.933998108,-14.7557106,91.84420013,17.95661163
883,-3.797380447,-1.963119864,7.376253605,4.259777069,61.14438629,12.45419884
884,-3.158200741,-1.808371305,7.35033226,15.64754009,43.87231445,6.659808159
885,-2.098093748,-1.772735476,8.079771996,10.42219543,25.01400757,8.988071442
886,-3.833296299,-1.292407751,8.724561691,5.923685074,6.735762119,13.56050205
887,-4.105139256,-1.367279649,9.256767273,-15.02570629,-2.64461112,13.00146103
888,-3.792396307,-1.906078696,9.156521797,-22.67432404,-13.99995804,10.14685726
889,-3.016992331,-2.33466363,9.252607346,-24.03348541,-23.55238914,5.507880211
890,-2.723927736,-2.704026699,9.693044662,-20.59465599,-33.4487915,2.116427183
891,-2.759077549,-2.400090694,9.903599739,-10.56998062,-41.01882172,-2.365360498
892,-2.385149002,-1.787617922,10.12233448,-4.138247013,-44.03898239,-5.952316761
893,-1.680272579,-2.065113068,10.18082619,0.697281241,-54.69658279,-8.659132004
894,-1.265517831,-2.448352575,10.19854259,-0.942151487,-63.69300461,-12.21079254
895,-1.622679234,-2.766912699,10.4990654,-5.308699608,-68.38581848,-10.52732468
896,-1.63671422,-2.765731335,10.67632771,-8.41080761,-69.54881287,-9.119779587
897,-0.958940327,-2.731673479,10.79117203,-11.23327732,-73.66248322,-10.3675375
898,-0.474228948,-2.91092968,11.0254879,-9.567364693,-73.27920532,-11.48581886
899,-0.198662132,-3.30238843,11.41940403,-5.002083778,-77.66368866,-12.45131588
900,-0.095244631,-3.201233864,11.71160793,4.273983955,-88.73023987,-11.60095406
901,0.110445194,-3.453203678,11.5490036,13.97033978,-94.50692749,-11.4286375
902,0.784088016,-3.166093349,11.28885841,14.57061768,-94.93758392,-12.58079624
903,1.1978755,-2.706182718,11.11334896,11.08761215,-97.65085602,-8.234970093
904,1.697995424,-2.724731445,11.2840662,5.057620049,-95.06212616,-6.992152214
905,2.338507652,-2.619479179,11.35715675,-2.458348513,-83.62612915,-8.067079544
906,2.208936691,-2.582166433,11.07524967,-1.118446589,-76.33375549,-8.112267494
907,2.070589066,-2.576354742,10.82703686,7.675991058,-71.22909546,-8.877907753
908,2.343518734,-2.624545813,11.00471687,12.37315369,-73.18386078,-6.664797306
909,2.875188828,-2.690655231,10.93403816,8.973726273,-71.14224243,-3.846207142
910,3.088536263,-2.445667267,10.59542084,7.154094696,-61.46970367,-2.8504951
911,3.177332401,-2.576496601,10.56392574,3.534967899,-49.72881699,-4.051958084
912,3.373894215,-2.590066195,10.48740864,-4.615944862,-42.76317215,-2.427325249
913,3.4662714,-2.602888584,10.41501617,-8.771566391,-38.82007217,-0.127936155
914,3.40321064,-2.664880037,10.41796589,-9.307911873,-33.52479553,0.463060379
915,3.45603466,-2.430125713,10.16976357,-7.594146729,-30.25550461,0.901275516
916,3.3956604,-2.396449327,10.02077007,-7.73322916,-25.16184425,1.033833504
917,3.453361988,-2.528550386,10.19528484,-10.47397995,-20.22628975,0.481007367
918,3.622332096,-2.454774141,10.16169548,-12.66242504,-15.734622,-0.43557018
919,3.267979622,-2.161463022,10.03646755,-6.716204166,-11.21200371,-0.660731137
920,3.153253794,-2.305723906,9.854919434,-5.39943552,-12.56345177,0.113861308
921,3.302194118,-2.568946838,9.86811161,-10.13387203,-12.53142834,1.87650311
922,3.288774252,-2.613371849,9.822496414,-10.44727421,-16.40774155,3.0536654
923,3.27005434,-2.468393326,9.858264923,-4.326776028,-15.32367516,1.709316015
924,3.209318399,-2.666478872,10.27795601,3.212166548,-10.46911144,-2.346860409
925,3.601429462,-3.136925697,10.39504242,10.24054813,-16.07157516,-6.287881851
926,4.188809395,-4.031118393,10.30508041,11.88266468,-20.54483986,-4.135851383
927,4.116770744,-3.990843058,10.16047192,10.90987015,-21.84118271,-5.572984219
928,4.118476868,-2.918248653,9.80608654,13.73070812,-18.50033569,-7.233835697
929,4.655905247,-2.17271471,9.624012947,12.8194952,-10.70241833,-7.113358498
930,5.2542243,-2.056561708,8.344903946,6.034125805,11.01782227,-4.76842165
931,4.584707737,-1.851432562,8.164010048,-3.425029039,27.78989792,0.642131329
932,4.018738747,-1.399267316,7.707409382,-0.491528481,29.38055038,4.64723444
933,3.813674688,-1.413959503,8.218504906,13.94268703,39.6032753,4.005959988
934,4.018079758,-1.910076857,8.955921173,13.29371071,39.58614731,9.521537781
935,4.277847767,-1.589912891,9.23850441,19.20271492,44.46582413,10.13213062
936,3.971464157,-1.425199986,9.399277687,19.64892006,51.252491,9.208774567
937,3.709974289,-0.977204025,10.02623367,12.67846584,44.78910446,4.155801296
938,3.469293833,-1.337005973,10.35833263,2.475215673,34.8828125,3.000547409
939,2.99692297,-2.267403364,10.20740604,-2.175506353,17.02114677,3.138922453
940,2.405072927,-2.680146456,9.874816895,3.265932798,-2.007920265,-0.22311224
941,2.534613132,-3.104751825,10.31292057,11.13059807,-15.98745823,-5.81982851
942,2.734139442,-2.486830711,11.77535725,11.7603569,-33.03383636,-11.38058853
943,1.847742558,-2.450417042,14.19857311,-2.295270205,-68.26279449,-14.91677094
944,1.342566848,-2.724448919,13.52992344,-33.27701569,-125.3241653,-10.00134468
945,2.254003525,-1.344127893,8.165599823,-14.05176163,-149.4601593,-19.50266266
946,3.747472525,-1.083307147,7.427651405,7.995309353,-171.0792999,-32.042202
947,5.467621803,-0.903941572,5.94617033,-0.768490255,-203.3454132,-36.52423096
948,7.93333292,-1.743599892,5.652664185,-12.55420113,-216.8108826,-36.58084488
949,8.665795326,-2.081918478,6.61442852,-4.730881691,-217.8437347,-40.06974411
950,8.296596527,-1.993952274,7.396160603,7.894950867,-216.4438477,-47.30020905
951,7.951659203,-1.902619481,7.865120888,18.25889587,-223.9003601,-50.66966248
952,7.471909523,-1.277507305,7.826556206,16.0803299,-237.8319397,-47.37956238
953,7.366536617,-1.070496678,7.557243824,6.339936733,-247.4277649,-45.13949203
954,7.783492088,-1.204660773,7.256059647,0.183227524,-241.9680939,-44.31222916
955,7.268005848,-0.661502898,7.782949448,-10.73217487,-226.7489624,-43.32231522
956,6.630209923,-2.706646442,7.052489758,-22.92004776,-204.1276855,-36.25941467
957,7.116516113,-3.556313992,6.445379257,-3.918475628,-170.5921326,-40.09771729
958,8.11346817,-3.20188117,5.633094311,1.227681994,-143.9553833,-42.16106415
959,6.914843559,-2.669243336,5.256903172,1.684025288,-105.6926956,-34.94910812
960,7.069727421,-2.476148129,5.032771587,18.52555084,-78.45765686,-31.72230148
961,7.818366528,-1.622976899,5.028134346,21.38302231,-58.49309158,-20.50111771
962,8.361111641,-1.23546803,4.847140789,9.231742859,-41.73355865,-9.68943882
963,8.241127968,-1.455018044,4.675577164,3.411636591,-21.87950706,-1.321053982
964,7.973116398,-1.304745555,4.699472904,4.52373457,0.898743331,3.430994272
965,8.128775597,-0.448037118,5.124590397,1.670610309,20.9929142,8.060463905
966,8.955306053,-0.713282168,5.39844799,-25.5975647,41.24824524,10.94983768
967,8.972620964,-1.809277415,5.720016956,-31.62968445,40.21684265,17.50320625
968,9.222679138,-3.079986095,4.27121067,-37.56745529,85.97080231,20.5158329
969,8.722075462,-1.167524576,2.08791852,-65.50177765,141.6546631,16.69824791
970,7.18884182,1.126135111,-0.473953515,-32.07379913,159.4823608,20.46500587
971,6.102654457,2.102597237,0.88218236,-4.707433701,173.6258392,24.93120766
972,5.079066753,0.873057783,3.535397291,-3.020981073,177.4826813,33.60241699
973,4.825047016,-0.576130629,3.783236742,1.124343038,178.2513733,36.94273376
974,5.844915867,-0.326269984,4.980818748,1.164207339,189.5652313,43.16479111
975,5.674206257,-0.327717215,5.975098133,-13.62606144,195.6561279,48.83204269
976,5.09602356,-1.046212673,6.309744358,-24.8685112,201.5256195,51.11388016
977,4.660518646,-2.334353209,6.827299595,-31.24295998,196.5097198,48.27175522
978,5.392895222,-3.032052755,6.382098198,-21.90028572,183.8481293,46.22957611
979,5.995534897,-1.298487663,7.391396999,-6.113073826,171.9093475,50.74808884
980,5.696466446,-0.828350008,8.314608574,-4.340933323,163.2086182,49.53618622
981,6.04734993,-1.397179484,8.923647881,-11.28816986,162.484375,38.85195541
982,7.127855778,-2.964441776,9.363893509,-34.4892807,166.1709442,31.3057003
983,7.748001099,-3.632737875,10.25044727,-43.95761108,170.094635,26.64399338
984,7.783932209,-2.497652054,9.367145538,-27.08816528,153.7549286,22.45287514
985,7.765912533,-1.621019006,8.940772057,-2.167951584,129.8863373,18.1665802
986,10.36807537,-3.152062416,9.942117691,-19.79441833,109.5018692,22.55568886
987,11.9162426,-4.338160515,10.40427399,-58.34724808,98.42707825,24.6359272
988,10.6388464,-3.390412331,10.44019508,-41.83928299,75.09197235,26.54812622
989,8.998338699,-2.425999165,8.842946053,-10.09405518,74.25725555,26.66699982
990,9.501915932,-2.40109992,8.870765686,2.669109583,94.08972931,20.29750824
991,9.272201538,-1.409747243,5.859373569,10.4456749,75.06726837,23.96430779
992,8.094285011,-2.413995981,4.83139658,19.16825676,83.07966614,27.16572762
993,3.614429951,-4.58516407,7.903727531,-7.812836647,108.4590683,33.05346298
994,-0.165704966,-4.609633923,3.532287836,-32.73240662,57.07804489,32.21811676
995,-1.571462631,-2.679951191,7.664244652,1.50581944,98.16491699,27.32268906
996,-0.725986958,-3.194305897,12.17051697,-15.65472698,106.6484756,12.30491352
997,-0.350551009,-3.26546216,9.338560104,26.1833477,82.54475403,4.744756699
998,1.598923564,-4.083772182,8.862267494,33.26596451,63.53266525,2.51851058
999,1.283780217,-2.858219147,7.647748947,44.08395386,55.21517563,4.552283287
1000,0.099882342,-3.776844978,8.77237606,34.92810059,40.21822739,16.32052231
1001,-1.548850656,-4.583753586,10.58279419,34.63384247,40.3540535,16.08106995
1002,-1.032534003,-3.360484362,11.60021782,23.87752151,48.87044907,3.966398001
1003,-1.869197369,-1.631502628,10.62338829,33.78575897,35.54953003,2.238664865
1004,-2.555910349,-1.756431103,9.340119362,40.85475159,8.157215118,2.31713748
1005,-2.491783857,-2.115475655,9.217015266,41.87359238,-9.195118904,0.663020968
1006,-1.987757802,-1.960649371,9.484176636,36.37060928,-24.00208473,-0.378795147
1007,-1.422242641,-2.182464838,9.98938942,22.54743195,-28.3842926,-4.647791386
1008,-0.635122657,-2.522847414,10.86766624,10.68127155,-26.88417625,-4.762203693
1009,-0.405684799,-2.353796482,10.85236931,-1.858546138,-29.02142334,-3.584872961
1010,-0.515996218,-1.801926136,10.25045013,3.028279305,-24.15260696,-1.278037906
1011,-0.752582967,-2.212298393,11.21618176,-3.990144014,-35.99103165,-2.982395411
1012,-0.707369804,-2.199294806,10.31004715,2.285948515,-43.17690277,-3.196018696
1013,-0.172025427,-1.984332323,9.860156059,9.890149117,-44.55742264,-5.499132633
1014,-0.222422957,-2.552568913,11.04233837,5.673919201,-44.07954407,-8.011242867
1015,-0.068989322,-2.886707544,11.36408424,1.673488021,-43.91936493,-10.29178143
1016,0.542957723,-2.192091465,10.70304871,9.363994598,-49.49094772,-11.7451725
1017,0.481657505,-1.444953799,10.23234367,24.47834587,-49.01578522,-11.03434181
1018,0.499849766,-1.437794685,10.45806599,25.95421791,-48.79712296,-8.696669579
1019,0.838913262,-1.998649478,10.65662193,17.49927521,-47.38274765,-7.124583721
1020,1.082449555,-2.368970633,10.42361164,10.37369442,-46.74587631,-5.745103359
1021,0.90212667,-2.620086193,10.70101166,9.99399662,-50.65151215,-3.276753187
1022,0.987153053,-2.476913214,10.83646107,8.382983208,-46.90911484,-7.133527756
1023,1.451033592,-2.237046719,10.78660297,11.11832428,-45.40559387,-7.386620045
1024,1.944114566,-1.856806993,10.58559704,16.9912796,-41.2238884,-6.975560188
1025,1.821909547,-1.610123396,10.58034801,19.18314743,-40.49761963,-8.347661972
1026,1.601369381,-1.559990406,10.68232346,16.96584511,-43.6823616,-7.819907665
1027,1.668127298,-1.652514815,10.71339512,13.81248379,-46.39367294,-7.527629375
1028,2.064144135,-1.864887357,10.80236244,7.87025547,-46.31702042,-6.296272278
1029,2.244696856,-1.852440834,10.66357899,1.266102076,-43.65372849,-5.778815269
1030,2.440161228,-1.527781248,10.54533672,1.817994833,-42.74905777,-7.987821579
1031,2.504852057,-1.518155694,10.58068848,1.138613105,-41.12631989,-6.862055302
1032,2.505553484,-1.575929046,10.49207783,-1.606714249,-42.81433487,-5.302458763
1033,2.763122797,-1.512221932,10.30321121,-0.429073423,-44.80780792,-4.086951256
1034,2.752864122,-1.673060656,10.18248653,2.388519526,-39.46116257,-2.835828543
1035,3.088117361,-1.543164492,10.15850067,1.016949177,-30.1249485,-2.958404541
1036,3.363645077,-1.804143429,10.34936428,-6.253322601,-24.69742775,-3.930425167
1037,3.539167643,-2.394743443,10.33921146,-13.28577614,-23.33165169,-3.143262386
1038,3.673074007,-2.477197647,10.21409798,-5.987776279,-18.79511452,1.123425603
1039,3.450358152,-2.150437117,10.15134811,2.93498683,-14.22656345,0.496438473
1040,3.785865545,-2.444826841,9.804935455,5.805503368,-1.756807208,-1.746062875
1041,4.119808674,-3.130606651,10.08933544,4.152678013,11.55294609,2.507394791
1042,3.482284546,-1.781027317,10.13901424,7.710196018,7.065882206,7.887601376
1043,2.774336576,-0.164970607,10.1650219,18.95331001,-3.589644432,7.369091988
1044,3.323142767,-0.420676231,9.883684158,19.64101028,1.36823225,3.888807058
1045,4.008223057,-0.439360023,9.23265934,8.429983139,9.047301292,0.264265597
1046,3.512565613,0.015071291,9.077431679,-6.605505943,8.476277351,4.170908928
1047,3.61210227,-1.488096476,8.988790512,-20.92408752,6.453623295,6.977417946
1048,3.382662296,-1.733469963,8.573509216,-10.04060745,7.94233036,4.701220989
1049,3.198755503,-2.204806089,8.963726997,-10.11765194,8.117458344,2.596034765
1050,3.407448769,-1.152584553,9.140722275,-7.686558247,0.109122925,0.44614768
1051,3.034380198,-0.069745883,10.05730247,-2.952094555,-7.029022694,-2.117453337
1052,2.599094152,-1.378323436,11.11649418,-15.50764942,-20.24378204,-4.258152962
1053,2.747698784,-2.227705002,12.75660133,-34.17826843,-33.00533676,-7.307843208
1054,1.947295666,-1.328525066,15.2463932,-39.20683289,-27.04885483,-12.14723492
1055,0.499903768,-2.622433186,12.32856941,-23.08260536,-136.375061,-4.407960892
1056,1.034345627,-2.547315598,6.456617832,6.981183052,-190.1700897,-14.1034193
1057,2.543432951,-1.680392981,6.436245441,40.75514603,-227.9403992,-25.30667877
1058,6.071328163,-0.844358444,5.141784668,24.66126823,-228.9853821,-36.62720871
1059,9.347430229,-0.654838443,5.142807007,-17.58264732,-221.9562836,-28.55531883
1060,9.900831223,-2.024646282,5.496675491,-12.34323502,-215.2074127,-26.41388512
1061,8.610141754,-2.805558205,5.945317745,4.383411884,-205.1396942,-27.64258957
1062,7.670877934,-2.1625669,6.352862358,21.40507317,-191.0380554,-31.76469421
1063,7.979955196,-1.75590682,7.237045288,24.33592796,-185.2327576,-33.30618668
1064,8.025932312,-1.974435806,8.072428703,24.91168404,-184.2689362,-31.12099648
1065,7.36502552,-1.271991611,8.687849998,23.35167313,-182.3403168,-25.4528656
1066,6.680054188,-0.938316822,8.4709692,8.96701622,-168.1743774,-24.06455994
1067,7.333704948,-1.040383697,6.930535316,0.393972456,-145.4722443,-20.96238518
1068,8.039457321,-0.548124015,5.483915806,-5.951673508,-111.3121719,-18.3968811
1069,7.792263031,0.473234504,5.553370953,-18.38887978,-84.50955963,-14.47204018
1070,7.954029083,-0.190191329,5.544666767,-33.47976685,-48.49523926,-14.77629852
1071,7.29484129,-0.703933537,5.691076279,-23.31285095,-20.28708267,-13.29342937
1072,6.896217346,-1.07353127,6.149013996,-24.94395828,-4.538434982,-10.64349461
1073,7.051947117,-2.123048544,6.356468201,-37.89257813,12.62611008,-5.90055418
1074,7.032133102,-2.708066463,6.358969688,-36.51119995,29.54429054,-2.353684425
1075,7.515220642,-2.002297401,6.91034174,-19.68227768,41.6456871,5.852334499
1076,7.596954823,-1.775498629,7.592119694,-23.1680336,43.18884277,16.5440197
1077,7.430815697,-3.155609846,8.00134182,-45.61063385,45.62833023,27.37954521
1078,7.273267269,-3.925647259,5.527628899,-57.23220825,65.68191528,28.20653534
1079,7.194160938,-2.152623892,5.118540764,-50.71724319,97.11746216,26.75691223
1080,6.053924084,0.058040321,2.159737587,-44.25408173,96.01950073,28.13835907
1081,5.434989452,0.029309684,3.019625664,-14.52463341,110.4896393,34.1824913
1082,5.475367069,-1.754917979,4.016604424,-9.440573692,119.8253708,34.27556229
1083,6.249876976,-1.822176456,4.808441162,-2.41430068,133.569519,36.46077728
1084,6.339637756,-1.68880403,5.171260834,0.630428493,143.0021362,38.91345215
1085,5.382143974,-1.099550724,5.81712389,2.643791437,145.9848785,41.91756821
1086,5.09327507,-1.194953442,6.58505106,1.546023488,140.5846558,43.4199295
1087,5.244102955,-1.69389987,6.398437023,7.875999451,132.8521118,45.90930176
1088,5.483619213,-2.040546179,6.354305267,7.201625824,132.1210327,46.98863983
1089,5.466307163,-1.459739089,7.356966972,0.377908707,130.038559,46.41902924
1090,5.197358131,-1.098062754,7.86242485,-11.62109184,121.8372421,42.80438995
1091,5.555397987,-2.229735851,8.661052704,-24.13108826,116.9324951,46.59801865
1092,6.549199104,-3.316346884,8.994481087,-29.66069031,118.2912521,49.4635582
1093,6.71293354,-3.588218212,9.277322769,-14.28779316,125.9442749,42.53914642
1094,6.785872936,-3.56185174,9.545088768,-0.494467109,134.0210876,32.83798981
1095,6.496554375,-3.566677809,10.52705956,6.00984478,135.0160217,19.37975883
1096,5.985037327,-2.684076786,10.26906967,15.31586456,105.9764709,13.14511108
1097,6.258571625,-2.217616558,9.497268677,30.1162262,61.83614731,11.08749676
1098,7.77030611,-1.818783164,8.830460548,26.0974884,24.02808762,16.18309402
1099,11.0279026,-3.556840897,9.687159538,-4.372561455,25.36685562,10.48297977
1100,12.51171207,-4.140740871,9.942973137,-30.43346596,42.14577866,10.24436092
1101,10.46126652,-2.734403133,9.060576439,-20.91826439,36.4190712,15.53405857
1102,7.743291855,-1.4762609,7.587170601,9.246829987,25.34669495,15.36281681
1103,7.996133804,-1.790928602,7.171110153,23.21830368,10.50131035,10.22789383
1104,8.308689117,-2.026442289,7.182833195,12.18901253,3.639689922,11.17136765
1105,7.537617683,-2.874705315,6.043457031,18.51770592,8.165480614,22.20618629
1106,5.654849052,-3.096821785,6.048976898,15.45088387,46.93680954,28.12320709
1107,1.665678501,-3.140018702,8.695919037,9.264453888,113.9360275,22.61595535
1108,0.966066957,-1.380066156,10.10267448,-4.401706696,111.4974442,14.41509914
1109,1.229709506,-3.089575768,11.15563011,-34.83901215,99.79792023,12.99672794
1110,1.975653172,-5.885540962,8.840292931,-12.59244919,82.8359375,17.5369854
1111,2.443464279,-2.758187294,7.75784874,26.80578041,76.21966553,14.68369293
1112,2.283519506,-0.0025733,9.913934708,29.90657806,67.36715698,3.28610158
1113,1.392080307,-0.579215467,10.33533669,17.26029587,47.58385086,4.437913418
1114,0.982221484,-1.883014441,10.63950825,7.727911949,46.40187073,2.711676598
1115,0.723494053,-4.038146496,11.08782864,3.457683086,51.63561249,0.108419575
1116,0.10414736,-4.281462669,9.622158051,15.71393967,38.02528,3.396884918
1117,-1.436955929,-3.291535378,9.065610886,20.17755127,19.50559044,3.78249979
1118,-1.327008009,-2.673043013,9.087273598,23.56988335,-1.355093837,-2.814854145
1119,-0.1812668,-2.23735261,9.171750069,28.66813469,-13.98090363,-6.584235668
1120,-0.695487738,-2.326868534,9.386322021,31.18645668,-16.24760818,-5.293586254
1121,-0.277512282,-2.859666586,10.19906425,33.77137375,-21.75338364,-9.561872482
1122,0.721122682,-2.171479225,9.857326508,29.57908821,-20.23312759,-11.64816952
1123,0.90982908,-2.169278383,10.30397129,23.86831284,-12.92309761,-9.212946892
1124,0.191853166,-2.558930635,10.42141628,19.87768936,-23.90214348,-5.769415379
1125,0.206982642,-3.308558464,10.72216892,23.17750168,-21.56287766,-6.647178173
1126,0.590829432,-3.412713289,10.80214882,30.12226105,-15.71986675,-6.170028687
1127,0.221048087,-2.469891787,10.7790556,42.75416565,-22.26181793,-5.223509312
1128,0.389118165,-1.513667226,10.02510357,52.39490891,-46.52210617,-5.107299328
1129,0.516675234,-1.695974827,9.504899979,64.52159119,-68.34487152,-2.290889978
1130,0.715803683,-2.798110723,10.76054001,63.62459946,-68.04092407,-4.170919418
1131,1.802563429,-3.408398151,10.62712383,52.08684921,-52.69301987,-8.013056755
1132,1.987436056,-1.771530628,10.84752655,47.59148026,-39.11640167,-12.45054436
1133,2.361586094,-0.195210338,10.71092033,62.16976929,-32.07394028,-14.82380772
1134,2.131597757,0.004572585,11.22114086,63.58001709,-26.37122154,-13.81681156
1135,2.160760403,-0.729651988,11.57059193,52.59402466,-26.34183693,-8.843202591
1136,2.259473085,-1.031366825,11.62333965,40.79152679,-24.00987816,-9.819034576
1137,2.140531778,-0.12836729,11.72664642,25.17923737,-20.70796776,-11.54501057
1138,2.054641485,0.023833849,11.6106596,11.4637928,-28.22760391,-10.79309082
1139,1.91012764,-0.319436759,11.68826962,5.207490444,-35.03725433,-11.05040932
1140,2.214065552,-0.205155924,11.14285088,0.412308455,-31.31571007,-11.45652962
1141,2.771144152,-0.083060943,10.80971909,-4.911505699,-27.83240318,-7.609221935
1142,2.738234043,-0.064849898,10.6084137,-6.299967289,-21.64365387,-4.354205608
1143,2.4942348,0.11890161,10.85445023,-13.09951782,-19.03769302,-4.169403076
1144,2.521878958,0.341372132,10.26546955,-23.13124466,-18.14571571,-4.584041595
1145,2.599262476,-0.193083629,9.828523636,-23.17772102,-17.5579071,-3.72491765
1146,2.792463064,-0.862018347,9.763772964,-20.93665504,-12.35297394,-3.093117714
1147,3.226192474,-1.164199591,9.801259995,-20.19981384,-6.467351437,1.093292475
1148,3.730553627,-1.426410913,9.693087578,-18.26135254,0.502605021,6.749051094
1149,3.845180035,-1.736496568,8.940917969,-13.32422638,3.029736042,11.19289684
1150,3.325335503,-1.423179507,9.495528221,-16.2631073,12.73850536,10.03985691
1151,2.736388683,-0.920558691,9.64128685,-36.17193222,29.93258095,8.436941147
1152,2.733267784,0.480981261,9.072702408,-38.924263,40.94684982,8.550396919
1153,2.416517258,1.021159053,8.589459419,-31.9943924,31.93405533,9.665837288
1154,2.236924887,-0.178201452,8.987995148,-26.68525314,22.04412651,16.72752953
1155,2.42116642,-0.64581418,8.707410812,-15.37296486,15.36065006,14.80395699
1156,2.758440018,-0.600584507,9.196755409,-8.424260139,13.58719254,12.8179903
1157,2.659505129,-0.578010201,9.597960472,-23.38759995,10.56350708,13.0019207
1158,2.802271843,-1.026153207,10.18770599,-34.12988281,8.228804588,13.14115238
1159,2.816405296,-1.088637471,9.723453522,-37.56669235,8.011949539,15.11796665
1160,2.677703619,-1.059476137,9.339535713,-39.13779831,3.155375957,15.34244537
1161,3.236290216,-1.596601129,9.946423531,-31.54298782,0.667719722,17.69971848
1162,3.154434681,-1.620039582,11.30421734,-8.954508781,13.57606506,14.39307213
1163,1.95854485,-1.938922286,9.361803055,-19.53722954,-40.48029327,16.31665802
1164,1.518401265,-3.118854046,10.0508194,-13.64556217,-65.90781403,1.536408663
1165,0.713875651,-2.817917585,11.54833698,-1.45465827,-103.6870346,-8.101086617
1166,2.200937271,-1.561510086,11.01852894,16.3426075,-150.7168427,-17.74618912
1167,3.918575764,1.180000067,9.439218521,21.17497253,-194.3513489,-21.58344269
1168,5.605458736,0.838667691,8.005032539,-1.799874783,-218.9669952,-23.54834747
1169,6.472363472,-1.847054482,7.903501987,-25.80978775,-223.7830963,-22.19250679
1170,6.977208614,-2.085213661,7.763828278,-17.78011703,-220.0088501,-17.46406555
1171,7.370418549,-0.99443233,7.419727325,-12.08766747,-219.9072723,-26.61153793
1172,7.450185776,-1.96125865,7.265305042,-1.563898325,-226.1534424,-32.0382576
1173,7.173795223,-3.136079788,7.511530876,17.10181808,-225.6806793,-31.64569473
1174,6.979616165,-2.842255831,8.203454018,35.54132462,-227.9927673,-31.81062698
1175,7.207367897,-1.090498328,7.982792854,43.89366913,-229.4401245,-31.78071976
1176,6.669569492,-0.094521627,7.640421867,40.51810837,-229.498291,-24.18648529
1177,6.04610014,-1.536628008,7.89748621,17.03800774,-217.3414764,-20.40322113
1178,6.565020561,-2.407311201,7.631809235,16.64323235,-197.4687805,-20.57382774
1179,7.798861027,-2.961255789,6.606609344,0.835453451,-172.1968384,-22.53958702
1180,8.563947678,-3.614315033,5.376127243,-4.970615387,-134.5594788,-26.66399956
1181,8.032915115,-3.160123587,5.385319233,3.353335619,-93.61619568,-30.83216476
1182,8.186534882,-1.459986329,5.681930065,1.368197322,-61.91494751,-35.82460022
1183,7.894895554,0.119882949,5.518848896,3.458438635,-34.55683899,-31.46098137
1184,8.08029747,0.056074131,5.024621964,-0.868349791,-9.333141327,-26.80838966
1185,8.423271179,-0.525676906,4.863705158,-9.287100792,11.73983574,-22.97177124
1186,8.35853672,-0.663653553,6.678489685,-5.801565647,14.91952705,-12.38342381
1187,7.92843008,-0.941938221,6.55552721,-15.19855404,11.66761684,-0.679582536
1188,8.30388546,-1.812522769,4.016904831,-30.97958946,45.00736237,4.685873985
1189,9.145834923,-1.393958926,3.80114913,-46.18085098,87.0819931,9.058826447
1190,9.617436409,-1.024948716,3.979181051,-55.11524963,119.8043442,15.23659992
1191,8.013372421,-1.164341331,3.445488691,-45.08229828,131.0552979,23.04596138
1192,6.333062649,-0.84848541,3.342546701,-22.16454697,136.643631,27.94869232
1193,5.542527676,-0.844065487,4.109942436,-21.57201576,139.5265808,31.06208229
1194,5.962982655,-0.726099074,5.216789722,-18.81996536,144.8309326,35.52186584
1195,6.201910019,-0.718840897,5.583592415,-9.970399857,152.1515503,39.66988373
1196,5.741552353,-0.962487161,6.332733631,-6.56456852,163.5308533,42.24493408
1197,5.030622959,-1.302881241,6.661216259,0.470575929,170.9994812,42.36727524
1198,4.864884377,-1.852383614,6.883415222,9.268372536,166.3063812,41.54926682
1199,5.121136189,-1.631127238,6.033765793,18.93834496,161.9477386,37.43462372
1200,5.16806221,-1.052476883,6.097325802,20.51178551,153.7979584,39.54117966
1201,5.338991642,-0.937046468,6.757317066,9.105963707,147.3435669,38.14659882
1202,5.764628887,-1.172267437,8.221787453,-18.72514915,141.422699,36.68149185
1203,6.93038559,-1.300657988,9.072558403,-36.10638046,137.5161743,35.95902634
1204,7.895718575,-2.043277025,9.330166817,-38.8458252,140.6489716,35.45311356
1205,7.568743706,-2.189656973,9.531603813,-40.42821884,136.756073,33.56105423
1206,6.740429878,-2.469333887,9.541532516,-39.43732834,128.4855347,32.13211441
1207,6.542955399,-3.322324514,9.377298355,-40.32688904,117.557518,25.71217728
1208,7.239683628,-2.565909386,8.532161713,-27.531147,93.51358795,23.05107498
1209,8.302732468,-1.588302135,8.598046303,-22.92323112,65.10621643,22.40714836
1210,10.5977602,-2.880217075,9.96551609,-42.91160202,69.04273224,17.33635902
1211,11.75883675,-4.509272099,10.35336685,-65.32096863,78.37948608,13.67373371
1212,10.2141552,-4.357932568,7.628239155,-34.38692093,57.87812805,21.08825111
1213,8.121129036,-5.39392662,8.132422447,7.847170353,52.60401535,17.59129715
1214,8.270155907,-0.837070823,7.799019814,-3.253374577,26.18673706,17.19037437
1215,8.582760811,0.445183069,6.014150143,18.44924736,11.31060028,13.55935001
1216,7.072333813,-2.019242287,9.712338448,45.64866638,73.83574677,12.36518955
1217,3.167658091,-4.529100895,7.96399498,-49.66837692,49.79829407,23.50471115
1218,-0.30615139,-2.985251665,6.141780376,-31.90846252,43.80721283,17.28406906
1219,-1.40243578,-2.976329565,8.492515564,-7.793224812,48.81620026,16.30972672
1220,0.888517141,-4.205310345,10.76142788,-13.44126701,60.81635284,16.10998917
1221,2.851788759,-4.923229218,10.32941723,1.978103518,61.44174576,17.74683762
1222,2.810689926,-2.580041885,9.7155056,18.63455009,47.20294189,17.68019676
1223,2.194219112,-1.976041675,9.105899811,15.10468197,26.50744057,15.12679958
1224,2.225136995,-3.212783813,9.83581543,20.51784515,33.37268829,17.80609703
1225,1.372075319,-3.652171373,10.76838875,29.42016602,38.29713821,16.29164314
1226,-0.224731371,-2.861525536,10.18850327,33.64028549,34.37889481,9.087730408
1227,-0.083119586,-2.785547733,9.884693146,26.45104408,29.296175,3.639059544
1228,-0.146841973,-2.53731513,8.971133232,25.77856445,23.26533127,6.625023365
1229,0.202610224,-2.840593576,9.073083878,21.84631538,13.68877983,7.98452282
1230,-0.275699407,-2.464733124,9.284303665,16.11909103,5.480535507,7.765767097
1231,-0.489277661,-2.053742647,9.525252342,13.14036846,6.522170544,1.862358451
1232,0.073733814,-1.183978558,9.754865646,15.02220535,4.706068039,1.84689486
1233,-0.412146419,-2.591683388,10.14978313,10.22652721,-4.203564644,-1.161209702
1234,-0.040652901,-3.245739222,9.535066605,13.77532864,-17.68610764,-4.037651062
1235,0.247354493,-2.683913231,9.092729568,17.37815857,-24.7081337,-5.816644192
1236,0.321441412,-2.188954115,9.422157288,20.34443283,-27.57476807,-3.356949329
1237,0.233268678,-2.253027678,9.682354927,20.05000687,-26.42470551,-5.932148933
1238,0.553820789,-2.672700882,10.0865469,17.78836823,-25.02758598,-7.226250648
1239,0.738218725,-2.789017916,10.2520628,16.32229614,-30.49754715,-6.430018902
1240,0.728263021,-2.449109793,10.07363796,18.44420433,-33.71061325,-8.158373833
1241,0.822023928,-2.46226573,10.11272621,24.55727577,-38.41107559,-8.504324913
1242,1.244452715,-2.004672766,10.26118946,26.68625259,-41.64857864,-8.176145554
1243,1.791508198,-1.673904181,10.60265636,21.36110687,-44.108284,-8.440405846
1244,1.926765442,-2.012599945,10.81595421,9.302154541,-46.76626587,-7.229576111
1245,2.003611326,-1.94982636,10.6870575,12.43738747,-43.45218277,-5.361967564
1246,1.838690042,-2.056140184,10.86222076,17.72317505,-42.50864029,-5.132920265
1247,2.123476267,-1.772470117,10.68468571,19.15050507,-46.95826721,-4.910030365
1248,2.273438692,-1.169891596,10.74374771,16.03080368,-52.64313889,-3.863788128
1249,2.399661779,-1.343322396,10.78383636,7.53131485,-58.59794235,-1.648517728
1250,2.422218084,-1.983442664,10.78050423,-0.068463683,-62.21093369,-0.837585092
1251,2.627156973,-2.229200602,10.56077671,-0.799883783,-65.16047668,-3.756094456
1252,3.10390687,-2.287102222,10.40840626,1.039399147,-67.07839966,-6.007131577
1253,3.386585712,-2.438621521,10.56031799,-1.76137352,-64.87541199,-7.976043224
1254,3.586304903,-2.454001188,10.82993221,-7.55813694,-55.70091248,-8.893559456
1255,3.913968801,-2.055273771,10.6986351,-10.95408916,-43.76361465,-10.20501518
1256,3.902690411,-1.677312851,10.10727596,-9.355195999,-38.01050949,-11.74437523
1257,3.642771721,-1.665284634,9.808341026,-3.728194714,-40.70834351,-9.691444397
1258,3.609404802,-2.136468887,9.967118263,-3.373245955,-42.1710701,-6.889674187
1259,4.016551018,-2.403284311,10.04721165,-6.938388824,-40.88572311,-7.357069969
1260,4.373355865,-2.369852543,10.05723476,-6.086730957,-38.45975876,-7.841403008
1261,4.497944355,-2.477357149,10.01455879,-2.331245422,-32.41053772,-8.365736961
1262,4.376519203,-2.122274637,9.875693321,-0.347322047,-29.03432465,-6.054617882
1263,4.346345425,-1.741427779,9.832784653,-1.822451353,-28.71354866,-3.738440037
1264,4.499196053,-1.684396148,9.711335182,-3.341032028,-27.32271385,-1.980456114
1265,4.892393589,-2.042221785,9.835957527,1.25020802,-15.77970791,-2.445931435
1266,4.93497467,-2.661297798,9.921088219,2.027053356,-6.858742237,-1.499847651
1267,5.19462204,-2.738936186,9.751275063,-5.540688038,-4.659790516,1.9950248
1268,5.284139156,-2.770729303,9.409485817,-13.25000095,9.3502388,5.986711979
1269,5.166520596,-2.648840666,8.85982132,-13.64951038,18.26163101,10.43646145
1270,4.673751354,-1.842482805,8.343802452,-10.62406445,19.0209198,15.40524387
1271,4.126565456,-1.506420732,7.626664162,-9.802814484,23.69458008,17.89247894
1272,3.760359049,-1.449275017,8.068188667,-8.573618889,21.63939095,15.37773418
1273,4.292815208,-1.487329125,8.441366196,-14.40001106,27.50055695,14.28181362
1274,4.79973793,-1.56105125,8.272096634,-9.323185921,37.74318695,13.71008492
1275,4.453436852,-1.12459147,8.748550415,-3.85996151,33.93777084,14.30130482
1276,4.238084793,-1.85903728,9.277277946,-22.53348541,31.93107986,15.58541584
1277,3.982581139,-2.553867102,8.715854645,-11.99931908,37.50712585,16.28919792
1278,3.881431341,-2.279013157,9.567428589,9.866785049,37.43969727,11.70764446
1279,3.481350899,-2.328455687,8.910610199,15.43094635,19.99791908,7.791761398
1280,3.674583912,-2.161177158,9.678542137,-3.87823987,13.73614788,3.993721247
1281,4.106224537,-0.235844821,10.26127529,-21.05641747,-8.381784439,3.660708189
1282,2.944210291,-2.412771225,13.65398502,-34.85850143,-46.65849304,9.911123276
1283,1.614240289,-3.47670579,7.800231934,-49.82538605,-114.8349075,15.42047691
1284,2.357141733,-3.583918571,8.310331345,-17.45699883,-133.7468414,2.532860994
1285,4.274643898,-1.33512187,7.981595039,-1.489584684,-152.3330231,-14.87248135
1286,6.703176975,-0.463831246,7.595505238,5.311152458,-182.8458405,-21.61361885
1287,7.909156799,-1.150681734,7.283528805,-7.069351196,-193.7998657,-23.64344406
1288,7.83608532,-1.870635152,7.353621483,-21.95479584,-200.7341766,-29.09757614
1289,8.047068596,-2.059593916,6.821638584,-29.5162735,-202.348053,-36.29415894
1290,8.149669647,-1.734441519,6.85070467,-19.66762543,-201.2466583,-35.94243622
1291,7.519565582,-1.66650939,7.404867649,-3.910214186,-207.4000854,-33.42823029
1292,7.303148746,-2.570478916,7.456894875,10.59698677,-220.4338684,-34.75099564
1293,7.423935413,-2.976274729,7.908529282,25.62168312,-226.4794464,-35.20531082
1294,6.79151535,-3.036016464,8.050605774,19.62122917,-212.955307,-35.95981598
1295,7.240616322,-4.189867973,7.493943214,21.57876587,-193.0426483,-47.74564362
1296,6.946211815,-4.654855251,6.389192104,36.62552261,-167.5812531,-51.38109589
1297,7.67612648,-4.024026394,5.662274361,41.45360184,-139.0253906,-59.78224182
1298,8.59151268,-3.379136801,5.329703808,38.50140762,-102.4296875,-63.32861328
1299,8.290131569,-2.069593906,5.058843613,24.12560272,-70.94857788,-60.63346863
1300,7.944346905,-0.288669765,4.345331669,12.0085535,-43.74212646,-54.43883133
1301,7.756052971,0.715743423,4.460997581,10.30329895,-26.63449669,-42.78918076
1302,7.161705017,0.346379161,4.844639301,10.46086502,-10.44213486,-31.31814957
1303,7.323283672,-0.810313165,4.764064789,6.987897396,11.38418674,-23.10710144
1304,8.3358078,-1.179646969,5.212656498,-11.11481667,27.00357056,-16.55996895
1305,8.525870323,-1.904666781,6.694930077,-21.57519722,43.84653854,-3.857984066
1306,8.078546524,-1.988238454,6.011095524,-30.29654694,52.00019836,0.691033006
1307,8.254815102,-1.264741063,5.240891457,-32.94367981,65.71647644,0.660826504
1308,8.739086151,-1.051772475,5.136672497,-49.0585289,88.40213013,3.311924458
1309,8.117510796,-1.151550055,3.562804699,-53.31928253,110.9676437,9.93698597
1310,6.861954689,-1.149017572,2.69263196,-31.95594788,119.331398,18.77789497
1311,6.181917191,-0.545386314,2.360846519,-8.946255684,114.784584,20.13432312
1312,6.190739632,0.229485899,3.631900311,-3.899541616,117.9317398,25.58553886
1313,6.483996868,0.518229961,4.310208797,-9.590349197,121.6812439,35.07650375
1314,6.519051552,-0.696152627,4.971168041,-19.3116436,130.0971985,43.68552399
1315,5.788223743,-1.6017524,4.93726635,-22.55016708,141.1540833,49.78984451
1316,6.194178104,-1.958275437,5.509992123,-25.06012917,148.2276459,51.65846634
1317,6.280934811,-1.849438548,5.756850719,-27.94773102,151.2127228,52.33621597
1318,6.143831253,-2.330797434,6.220297813,-27.25325966,153.340744,53.27589798
1319,5.670608521,-2.512538671,7.07276535,-20.54261398,155.5585785,52.03968048
1320,5.741094589,-1.714161992,7.612188339,-9.466402054,146.236618,47.7401619
1321,6.166455269,-2.218125582,7.950086594,-8.96404171,134.7812195,40.34376144
1322,6.927395821,-2.82306838,8.573599815,-15.86950588,130.3808746,38.77024078
1323,7.711881161,-2.584625006,8.380431175,-2.740334272,135.6996613,37.44543839
1324,7.431242943,-2.676288366,9.037239075,3.552533627,133.2764435,35.36525345
1325,6.868324757,-3.905141354,9.874314308,5.893619061,120.0055771,28.9052887
1326,6.563164711,-3.382135868,9.649962425,11.40563583,94.1231308,23.55272675
1327,7.784025192,-1.643804431,9.200153351,30.29521179,62.20249176,17.00783539
1328,10.49726391,-2.611078262,9.740469933,19.61692619,49.25252533,13.59830189
1329,12.42306519,-3.985809803,9.932155609,-12.03170395,48.31288528,12.57677841
1330,12.31189919,-3.280361414,8.986164093,-14.05829144,45.38690567,13.87806034
1331,10.57241917,-1.260243058,7.280222893,-2.088920832,38.15193176,17.58524323
1332,9.659565926,-0.194283947,6.4016366,2.007332563,39.35439682,21.20360947
1333,8.314740181,-0.261192769,5.682260513,-0.704769492,30.0974617,26.49399376
1334,6.912799835,-1.933106542,5.325247288,-6.196359158,21.41049385,35.57868195
1335,5.925587177,-3.590797901,7.321877956,-13.60223484,50.1752739,39.02832031
1336,2.97368598,-4.212424278,9.506561279,-15.1420126,106.6741943,30.21573257
1337,1.55400908,-1.528219461,9.756529808,-2.61105895,99.8629303,15.40310955
1338,2.00399828,-1.129617333,12.17116165,-4.803207874,98.28255463,13.83395195
1339,3.645247459,-4.403333187,10.4235754,6.487511635,79.94129181,24.74681091
1340,3.815325499,-3.439213037,9.537097931,34.15908051,76.24723816,17.6001606
1341,2.345046282,-0.986466944,8.406949043,67.93398285,57.55246735,8.912773132
1342,0.756720901,-2.308783531,9.889874458,49.68767548,52.09039688,7.00123167
1343,1.085818172,-2.757546186,9.55527401,34.76264191,52.41508102,3.123704195
1344,1.243236303,-2.29962182,10.01010418,38.54598236,47.37519073,9.639173508
1345,1.028783083,-2.389727116,9.691236496,26.59939575,44.8995018,7.261720657
1346,-0.978079736,-1.766608715,9.0635252,31.21567917,28.22471046,7.988165855
1347,-1.275040865,-1.737442374,8.625699997,23.95518875,18.68580627,2.985950947
1348,0.00685435,-1.709005117,8.796238899,19.3237133,15.45779037,2.080197334
1349,0.091449142,-1.563899159,9.259462357,24.60004616,5.302640915,3.152731657
1350,-0.441657335,-0.910990715,9.668958664,25.05330086,-5.532733917,3.673266888
1351,-0.83462286,-1.169658542,10.16881752,18.93332481,-12.04685688,1.224903822
1352,-0.264267296,-1.785238981,10.00850391,0.905320048,-14.76890278,0.820221722
1353,0.191639096,-2.111358643,10.0209589,-4.490240097,-20.98994255,1.721906304
1354,0.056318127,-2.204796314,9.973230362,-8.085098267,-33.67588806,-1.338403583
1355,0.859719694,-2.193495274,10.15622997,-3.025454044,-33.43020248,-0.880933046
1356,1.426081061,-2.245998144,10.45788002,-3.103481054,-28.41589546,-3.951174021
1357,0.951592624,-2.320007324,11.09239674,1.113837004,-33.10384369,-9.715943336
1358,1.310009837,-2.162132502,11.11690426,13.61132431,-37.76262665,-11.89629459
1359,1.171420097,-1.89656961,10.63024712,25.62023735,-37.15676498,-13.82034302
1360,1.205741167,-2.168987513,10.54703236,28.84209633,-35.68875122,-15.17488575
1361,1.353392005,-2.169876337,10.61569405,22.21634674,-36.95067978,-14.27701283
1362,1.91698432,-2.006232262,10.27745438,17.14266968,-41.23142242,-11.67345428
1363,1.819883704,-1.629855633,10.31811905,18.50534821,-44.81498337,-11.45036411
1364,1.947069407,-1.407230854,10.49808884,22.31402016,-43.7305069,-10.00308323
1365,2.043571949,-1.592130303,10.9451437,21.1303997,-38.18340683,-8.322532654
1366,2.143565416,-1.21217525,10.86776447,13.62466049,-29.44222832,-9.830387115
1367,2.216346264,-1.029378533,10.20234966,9.443688393,-30.79608727,-9.469269753
1368,2.360485315,-1.012635827,9.888795853,13.16412258,-39.73515701,-6.671138763
1369,2.525123835,-0.983250499,10.36651707,12.97043514,-40.45940399,-3.429972172
1370,2.633105755,-1.099799156,10.699893,2.155078888,-41.69826889,-4.347686768
1371,3.352964163,-1.617208481,10.55683899,-6.743305683,-38.76940918,-8.637516975
1372,3.879586697,-1.912299037,10.45601463,-17.60156822,-36.2165947,-9.243146896
1373,3.68320632,-1.607657433,10.33032703,-22.73190689,-31.82490158,-4.856412411
1374,3.335032463,-1.029357195,10.65211868,-23.07748222,-24.63598442,-3.164730787
1375,3.566427231,-1.500677347,11.01918316,-28.29058838,-17.62764931,-3.776786089
1376,3.811086416,-2.212455273,10.51874161,-28.91588974,-12.47237301,-5.408352375
1377,3.680319309,-2.710517406,10.21148205,-19.8513298,-8.91262722,-5.472156525
1378,3.3926723,-2.208580256,10.04452705,-8.900669098,-9.323714256,-6.949249268
1379,3.415921688,-1.491544127,9.621515274,-9.985665321,-12.1643858,-0.816885829
1380,3.527992487,-2.172784805,10.09710312,-21.23505592,-9.740076065,8.489386559
1381,3.585572004,-2.906104326,10.94026661,-37.47234726,-1.425988078,6.992777348
1382,4.239461422,-2.895586491,10.36337471,-29.81450081,5.248330116,9.059782028
1383,3.867094755,-2.153662682,9.852941513,-25.18461418,14.89488888,12.84477615
1384,3.356301308,-1.034764171,8.795262337,-22.69923592,13.57830143,15.93840408
1385,3.597295523,-1.164782524,9.239593506,-18.24758911,17.61072922,18.75385475
1386,3.862858772,-1.200202703,9.255986214,-22.29029655,25.04382133,15.71081638
1387,3.712753057,-1.541419506,8.452522278,-21.54344559,31.05407333,14.00532055
1388,3.240643978,-2.38432622,7.77157259,-9.200692177,36.07038498,15.58746719
1389,3.367025614,-2.245327234,7.891720772,7.025082588,39.12276077,14.52872944
1390,2.996448755,-1.62731111,8.468179703,24.71604538,38.46715927,16.44819641
1391,2.672543287,-3.936457634,8.711916924,20.32212257,39.3442955,14.95913887
1392,2.458233833,-3.089437485,8.121341705,-0.414357245,31.07452011,3.235087156
1393,1.720628262,-0.952663183,8.021837234,-3.862787485,11.00792027,0.357771158
1394,1.939766765,-1.52031517,10.16419983,-10.28608036,-10.74270344,-2.064410448
1395,2.346606016,-2.163758755,10.50631142,-19.97472,-37.05495453,-8.917004585
1396,2.498584509,-2.411689997,9.73037529,-6.723095894,-73.62788391,-12.82134342
1397,2.827682495,-1.129733205,9.301041603,7.204087257,-109.9149475,-18.72049141
1398,3.511439085,-1.217159152,8.263220787,26.19973946,-143.6387939,-22.34120178
1399,4.651320934,-1.198997259,9.020313263,32.57656097,-167.7999878,-26.33569145
1400,5.822200775,-1.457070351,8.689043045,25.13725281,-188.6536713,-36.44814682
1401,7.315351963,-2.896739483,8.22394371,24.17072678,-198.657135,-41.44563675
1402,8.134530067,-2.656131029,8.250089645,32.4417305,-197.8771973,-41.28237915
1403,7.618965626,-1.361615896,8.4746418,27.3870697,-198.7379913,-39.7057991
1404,7.272509098,-2.005467653,8.498121262,16.37826157,-200.4633179,-37.57630157
1405,6.754699707,-1.981160164,8.964317322,13.25423622,-201.3109589,-34.39070511
1406,6.531848907,-1.199421883,9.408979416,13.36056137,-206.2176666,-29.51469994
1407,5.831596375,-1.874618292,8.800437927,5.700589657,-205.5235901,-23.78536797
1408,5.985473156,-2.163841486,8.778019905,6.128446102,-205.2619019,-32.92024612
1409,6.15281105,-1.919916511,7.384942532,-13.49099064,-190.2234192,-26.55265236
1410,6.803058624,-2.341137648,6.994272232,-18.30391884,-164.667099,-31.67802238
1411,7.484734058,-2.575477362,6.423318863,-21.89843559,-130.2906494,-31.16188431
1412,7.385708809,-2.636033773,6.616493225,-13.33212471,-97.98905945,-28.31297493
1413,7.128641605,-2.152056217,6.563537121,-8.716086388,-71.9928894,-28.82153702
1414,7.292066097,-1.751671672,6.477937222,-8.848540306,-49.10782242,-27.5417347
1415,7.631725311,-1.289309382,6.614526749,-8.733864784,-26.24081802,-24.63180733
1416,7.796346188,-0.940015495,6.243900299,-12.15019798,-7.034808636,-17.02818489
1417,7.750617981,-1.16058898,6.436844826,-13.39113617,1.465924621,-6.454404354
1418,7.888560295,-1.504680514,6.468605042,-17.60208893,12.22788715,4.853390217
1419,8.402463913,-1.383301973,5.181477547,-24.00261497,22.22453117,8.526163101
1420,8.540372849,-2.380122423,4.40213728,-25.44976616,47.20903015,6.61094141
1421,8.394150734,-1.518371105,4.175671101,-25.23135376,72.97320557,10.48795223
1422,7.473661423,0.146960765,4.127126694,-22.4693203,93.79974365,20.89128494
1423,6.458825588,1.265583754,3.65140605,-25.30707741,107.4197617,30.39892197
1424,6.261455059,0.882085323,3.798340559,-21.76132393,122.3968582,36.92873764
1425,6.024612427,0.220211327,4.875913143,-24.81988144,130.4623718,42.47574234
1426,5.261727333,-0.368101001,5.195637226,-27.83246422,138.9798279,43.06703186
1427,5.369973183,-0.546388328,5.671504974,-33.26576614,150.1335449,39.83309174
1428,5.745966911,-1.789155126,6.035598278,-27.62611008,158.8335724,36.35504913
1429,5.722373486,-2.175932884,6.294336319,-16.71358871,160.6082764,31.69166756
1430,5.600096226,-0.595091283,6.701957226,-8.237470627,151.5207062,30.53223991
1431,5.284499645,-0.097830653,7.138570786,-12.39729404,139.6215363,28.95347977
1432,5.335515499,-0.681299686,7.770174026,-23.31282997,130.9821625,28.88843155
1433,6.125531197,-1.915012479,8.201626778,-31.4653492,121.9187546,26.50334549
1434,6.766592026,-2.382642269,8.901362419,-26.21670341,109.4740906,24.92114449
1435,7.109388351,-2.140024662,8.885972023,-22.6898613,104.4631653,22.23292542
1436,6.948143005,-2.647829771,9.302315712,-12.97005653,102.6369858,18.08343315
1437,6.417817593,-3.489669323,9.814130783,1.86360395,91.45747375,12.6744976
1438,6.593947887,-3.13730979,9.616938591,14.29246998,76.41526794,8.196259499
1439,8.266486168,-3.05218339,9.298427582,-5.607141495,65.84631348,5.078365326
1440,9.926230431,-2.489706516,7.993688107,-28.26827621,57.95807648,4.944687366
1441,12.07581997,-3.8659904,8.823373795,-39.61928558,67.77131653,8.57628727
1442,12.18067169,-4.254492283,9.399565697,-52.44543839,72.67419434,15.4181366
1443,11.17754555,-3.456093788,8.18975544,-55.9776001,61.66797638,25.47569275
1444,10.36894608,-2.540863991,7.115609169,-35.20568466,53.99123001,27.14226341
1445,9.819671631,-2.492120743,6.280015945,-3.341580868,29.56480598,28.4393158
1446,8.866618156,-2.379053116,5.479960918,11.90575886,43.35882187,35.49281693
1447,7.779687881,-3.416936874,6.065208912,2.663203001,59.8680687,44.28427124
1448,4.561964989,-3.793834448,8.260882378,-21.14700317,93.00934601,50.173172
1449,0.830882132,-3.372920752,5.947924614,-4.505819321,73.96113586,55.57961273
1450,0.58286041,-2.891558647,10.98806953,-7.86958456,113.8798065,38.39374542
1451,1.865194321,-2.328733444,9.018925667,-1.470543981,91.99216461,29.1409893
1452,3.552061796,-5.506099701,9.656533241,17.52397156,86.97949219,38.58986664
1453,2.759040356,-4.707379818,8.413497925,38.23566055,75.68238068,41.5443573
1454,1.295561314,-2.325094223,8.596217155,58.65816498,61.88328552,24.73103905
1455,0.220009416,-1.578950763,9.586068153,54.7661705,56.51653671,21.45308495
1456,0.354016006,-3.078620672,10.16898441,49.68394852,55.26264954,24.6312809
1457,0.653891265,-3.159796,10.11813259,49.72657394,51.05744553,23.9096489
1458,-0.446950138,-1.56261158,9.174114227,49.01466751,41.78683853,20.32817841
1459,-1.30243969,-1.069372892,8.871305466,38.88850021,29.21726227,15.9273777
1460,-1.817047834,-1.100158691,8.993266106,28.0958004,14.8144722,13.74785423
1461,-0.97841984,-1.308889031,9.177441597,23.15366554,11.26206398,11.49822617
1462,-0.695397735,-1.634731412,9.526273727,19.75042534,0.798592687,10.75828838
1463,-1.33157599,-1.868326306,10.0040617,10.18368626,-13.04034424,8.086234093
1464,-0.422109067,-1.606005192,9.852991104,5.466201782,-11.33434963,6.214797974
1465,-0.698852003,-1.984225869,9.803570747,1.26738894,-20.8399086,5.091332912
1466,-0.665635645,-2.298560619,10.2077055,-0.639653087,-25.33438683,1.370288968
1467,-0.196342528,-1.935833454,10.47212219,2.999200106,-32.00072479,-1.616039038
1468,-0.430939019,-1.592754126,11.17538548,3.334005117,-39.84186172,-3.876568794
1469,0.352222174,-1.030341506,10.8790102,-2.174310923,-46.41976929,-5.936038971
1470,0.918768942,-0.817253351,11.50924587,4.571115017,-50.32999802,-6.752856731
1471,0.538738549,-2.188521862,10.98842239,4.714164734,-64.30725861,-9.888000488
1472,0.789002001,-3.424814224,10.76306534,-4.475702763,-71.35115814,-9.316565514
1473,1.526835084,-3.340371609,10.27607346,-8.659203529,-67.64515686,-9.916193008
1474,1.79073894,-2.760171175,10.26482964,-4.707493305,-61.23612976,-11.23993492
1475,2.071029425,-2.381348133,10.36086941,-4.398478508,-57.73659897,-10.77497864
1476,1.920849562,-2.147747278,10.27475834,-1.736258984,-54.66043854,-9.713306427
1477,1.847211838,-1.97793901,9.793642998,7.704616547,-63.46611023,-8.068675041
1478,2.308594227,-2.271696091,10.17497349,11.23439407,-64.37983704,-8.590400696
1479,3.302932024,-2.7804811,10.71239853,-3.698168516,-59.29301071,-7.414861202
1480,3.031820297,-3.075994015,9.65145874,-10.01322365,-48.25963974,-4.805809975
1481,2.398892879,-2.493841171,10.06455708,-16.14642143,-46.25801086,-5.03245163
1482,2.523289204,-1.333601713,9.752122879,-19.79722023,-48.15687561,-5.633093357
1483,3.318485022,-1.483607888,10.34893131,-21.47469139,-49.73683929,-1.144105554
1484,3.94468236,-2.742896557,10.58970261,-28.85565758,-43.29159927,3.0465765
1485,3.752532244,-3.387230873,10.10046959,-25.77683449,-37.92158508,4.345393658
1486,3.586193562,-2.997505188,9.57189846,-14.95942402,-38.67819595,3.32611084
1487,3.635995865,-2.735863924,9.56590271,-9.304106712,-38.2247963,1.597197652
1488,3.877054453,-2.835528135,9.604357719,-6.775502682,-37.45857239,1.149574161
1489,4.289830208,-3.159286499,9.694820404,-6.946243286,-33.10554504,1.374517322
1490,4.569016933,-3.309090853,9.979373932,-8.271640778,-24.47276306,3.544133902
1491,4.285998821,-3.307051182,9.933354378,-13.05465698,-15.80324936,3.99277544
1492,4.321193218,-3.196534634,9.679648399,-10.77683926,-8.885391235,3.069325447
1493,4.442676544,-3.05748105,9.951369286,-11.42617607,-3.545285702,0.382519454
1494,4.214017868,-2.98747468,9.269784927,-4.076792717,2.912253857,-1.039126515
1495,4.395545483,-2.666330814,9.273322105,2.380451441,6.706321716,-3.493547201
1496,4.283755302,-2.573348999,8.325507164,6.439941883,14.5862093,-0.116589114
1497,3.589725018,-2.900059223,8.078253746,12.14607143,15.37524796,2.837570667
1498,3.451791286,-3.013959408,8.676906586,12.6841898,10.58741665,3.799289465
1499,3.794705153,-2.538967848,8.942851067,12.8061552,5.879950047,3.70003891
1500,3.977937937,-2.281816721,9.016261101,19.48036194,-1.148500681,5.168694973
1501,4.192132473,-2.047314882,9.248241425,24.35980225,-3.156708241,6.851713657
1502,4.668709278,-1.984013677,9.401231766,21.61357498,-1.915443063,9.139410019
1503,4.573470592,-2.26772809,9.379357338,14.49675179,2.407058477,9.517421722
1504,4.272554398,-2.086440802,9.214961052,10.92435265,6.766190052,8.596923828
1505,4.286523342,-2.119741678,9.255304337,13.54729462,8.835166931,5.491809845
1506,4.392702103,-1.935324073,9.851266861,6.167189598,11.13320065,0.537514806
1507,4.506008625,-2.409431934,9.381212234,4.315094471,9.097691536,0.331895858
1508,4.171040058,-2.347526789,9.046271324,6.066099644,-0.321023226,2.328335524
1509,3.090130806,-2.125534058,10.60624027,-19.08029175,-16.17651176,1.570919991
1510,3.054023504,-1.420203209,10.8884182,-42.26379395,-34.24844742,-1.455149293
1511,3.401625156,-2.436470509,8.426603317,-14.26827431,-68.58500671,-1.823386908
1512,4.152637482,-3.112867117,7.325602055,45.40659332,-95.07553101,-8.199894905
1513,5.171439648,-1.867323756,7.690681458,44.61848831,-124.9659195,-19.227211
1514,5.979951382,-0.806354761,7.017884731,19.78707886,-145.2922821,-31.69715691
1515,6.920249462,-3.243775129,6.966013432,8.718507767,-164.1749115,-31.49870491
1516,8.224539757,-4.109801292,7.613893032,21.53874969,-173.1463165,-31.93186188
1517,8.207177162,-2.363951683,8.145975113,21.9095726,-179.4950562,-37.22380066
1518,6.99560976,-1.490892172,8.709481239,9.074951172,-187.8109589,-38.53884506
1519,6.695172787,-2.389601231,8.852654457,5.075804234,-192.5868225,-44.03963089
1520,6.991793633,-2.789561272,9.132204056,14.32332897,-189.8441925,-43.29042435
1521,7.079669952,-2.82870698,8.555785179,32.3425293,-182.4604797,-41.10292435
1522,7.033623219,-1.910388947,8.319036484,39.01808929,-177.6988678,-47.09364319
1523,6.270460606,-1.835164428,8.29811573,27.52849579,-159.4063873,-34.78999329
1524,5.763958454,-1.753898978,7.447892189,31.70327568,-145.0795135,-37.00691223
1525,6.597392559,-1.764283657,7.21716404,29.90699387,-127.7402649,-28.87556458
1526,7.126686096,-1.572999597,6.947537422,29.10188675,-102.7692413,-23.23725891
1527,7.640828609,-1.254780054,6.636987686,23.18189049,-79.83311462,-18.29988098
1528,8.017468452,-1.346257091,6.277780533,28.0849514,-57.06511688,-13.59634399
1529,7.805509567,-1.475561261,7.034666061,26.16553307,-32.04690552,-10.47307491
1530,7.919913769,-1.208833814,6.42194891,16.07485771,-19.7587471,-8.924383163
1531,7.648321152,-1.298021555,6.760449409,14.43463326,-8.030896187,-4.787222862
1532,7.457175732,-1.307741761,6.648202896,13.42101955,-5.951870918,-2.756197453
1533,7.78482914,-2.006163836,5.90685463,21.33313179,6.810269356,-5.998044014
1534,8.140219688,-2.42972827,6.021918774,29.64235115,20.15729713,-8.652241707
1535,8.898122787,-1.211126924,5.214545727,29.84838104,43.83021545,-9.974379539
1536,9.25773716,-0.415370226,4.098173141,6.231215,81.93907928,-9.524671555
1537,8.529395103,0.461854219,2.428759575,3.045851231,117.6312408,-4.050744534
1538,6.671895981,1.882722139,1.931085229,12.31674957,136.551239,7.533272743
1539,5.590047359,2.528306484,2.890396357,15.81805897,143.1081696,15.14903164
1540,5.393190384,1.896001339,4.805953026,5.220183849,151.9766541,17.04730034
1541,5.352210045,1.073421478,5.9314394,-14.83166504,156.5591736,21.23337746
1542,5.245728493,-0.371223003,6.04167223,-22.08543015,158.6245728,23.22764969
1543,5.057846069,-0.28896448,6.210503101,-22.70812607,162.2091064,23.01468468
1544,4.855485439,-0.181556895,7.116299629,-22.94130516,164.6667786,19.44182205
1545,4.755744934,-0.430570573,7.088840008,-14.05320072,162.5473328,12.82356739
1546,4.922644615,-0.149071261,7.469050407,-15.07194996,155.9174805,11.12551594
1547,5.437560558,-0.016668003,7.713616371,-24.3516674,143.923111,11.42999935
1548,5.78530407,-0.506501913,7.960263729,-24.59151268,134.7323303,14.05841255
1549,6.246510506,-1.200401664,8.631624222,-29.88958168,132.7099609,12.48694706
1550,6.371231556,-1.701607704,9.586023331,-35.09322357,138.3498993,11.86149788
1551,5.733076096,-1.232600212,9.950202942,-33.89408493,137.6608429,10.36505795
1552,5.704751492,-0.801599741,10.43606472,-17.48220634,123.4330902,8.574699402
1553,6.173199654,-0.806720614,10.2793951,-6.685286522,106.6097107,7.159837723
1554,7.565981865,-1.62513864,9.629854202,-0.232375905,75.57408905,6.726485252
1555,9.564189911,-2.793880224,9.280174255,-20.04058266,59.54130173,0.254849881
1556,11.12791157,-1.396620631,9.183621407,-44.51940918,66.99305725,-0.970999539
1557,11.52177143,-0.104381561,10.00312138,-47.46873093,78.17716217,4.69178915
1558,10.93699741,-0.731621027,9.054182053,-35.80303192,71.65634155,8.894463539
1559,10.0398407,-1.715857029,7.553699493,-10.70389843,66.15785217,10.21356869
1560,8.982263565,-1.137418032,7.827621937,-0.00438622,52.30575562,15.02415371
1561,7.593316078,0.302263379,6.639529228,-3.578146935,32.76394272,23.50525475
1562,5.903209686,-0.918686569,4.452250957,-7.424129486,23.90936852,40.05330658
1563,3.740455866,-3.062852621,3.755403519,-6.905116558,67.12998199,46.40938568
1564,0.988591731,-1.89557147,8.735500336,-22.19169235,143.9830475,37.03250885
1565,-1.045138001,-0.522937834,10.93362808,-25.48106003,130.3431549,28.20885658
1566,0.170750558,-3.289266109,11.38985062,-74.34687805,120.3934937,19.66625023
1567,1.765820265,-4.472128868,8.980554581,-33.15868378,95.62535095,21.24090767
1568,2.026834488,0.628269434,8.083778381,9.64133358,80.36483765,18.50819016
1569,0.426919162,1.226142049,9.082873344,0.470724732,68.32123566,14.94161129
1570,-1.068439126,-1.539259672,10.73336124,-33.11220169,60.11854172,18.62419128
1571,-1.497285962,-4.70065546,11.06724262,-26.16627121,51.7663002,15.26167393
1572,-1.198233485,-5.113359928,10.72499561,-9.920837402,47.33213043,6.403805256
1573,-1.255802393,-2.823740005,9.180426598,8.960609436,36.7629776,3.413178205
1574,-2.153296232,-1.948951364,8.918567657,14.56263256,14.28684807,-0.318462342
1575,-2.802010059,-1.96476531,8.185734749,16.37244797,-5.099013329,-0.135446504
1576,-3.163680792,-3.487019062,9.822968483,7.170797825,-14.29200268,-13.15053177
1577,-0.543575466,-3.102654219,10.57976341,3.392233849,-7.404680729,-18.64466286
1578,-0.037790127,-1.998791933,11.39792633,5.501152992,-6.067277431,-16.6851635
1579,-1.95039463,-1.199766755,10.39224148,7.836566448,-35.20664978,-11.69859219
1580,-2.051830769,-1.941425562,9.690583229,9.948767662,-46.88759613,-10.77060318
1581,-0.919726849,-3.16999197,10.0509882,9.237699509,-47.47979355,-13.16866779
1582,0.26048255,-3.406551361,10.18990803,11.99156094,-44.45080948,-14.56165791
1583,0.270379901,-2.68772006,10.50188351,18.36402512,-43.44906998,-10.5124073
1584,-0.441184014,-2.389324188,10.66067886,23.30139542,-50.29983521,-7.70933342
1585,-0.599285066,-2.577633381,10.86204052,24.2077179,-58.89138794,-12.65379143
1586,0.030198947,-2.794577837,10.83525276,26.00835609,-65.13451385,-13.65278149
1587,0.763356566,-2.767773151,10.45437622,26.87771797,-69.88616943,-14.93172073
1588,1.09163034,-2.62462163,10.46369362,32.14207077,-72.38787079,-14.24446201
1589,1.081896305,-2.591437578,10.87949562,25.58978462,-70.95929718,-12.01091194
1590,1.412649393,-2.556500912,10.82399845,15.61523151,-71.58093262,-11.45804977
1591,1.964005351,-2.539483547,10.74065113,13.22582626,-67.81884003,-11.42348766
1592,1.901250362,-2.553242683,10.68195057,18.76174927,-68.36513519,-10.78061867
1593,2.33076334,-2.279594898,10.74244976,18.89727974,-65.5858078,-11.90525818
1594,2.623780966,-2.064942837,10.89383984,9.153946877,-56.29787064,-11.1415863
1595,3.006972075,-2.077409506,10.52373886,1.476411939,-48.77632141,-7.606140614
1596,2.918912172,-2.169673681,10.51950359,1.672854066,-44.62566376,-5.035921574
1597,2.713439465,-1.882668972,10.22212982,-2.57621336,-44.08169556,-4.528798103
1598,2.818071604,-1.716960311,10.11254025,-2.052045822,-43.36658096,-4.560288906
1599,3.209643126,-1.628198981,10.20863152,-4.869353771,-39.33171463,-3.990026236
1600,3.353853464,-1.646617889,10.21810818,-8.084765434,-29.6020546,-3.641395092
1601,3.338294029,-1.78993237,10.23768997,-9.787671089,-22.93041039,-2.520551443
1602,3.409977198,-2.092437506,10.139678,-12.04842472,-22.14930153,-1.110767484
1603,3.429154396,-2.284552097,10.15752029,-13.65367985,-21.35265732,-0.9332968
1604,3.492235661,-1.931036234,10.13509274,-14.02912998,-17.51627922,-0.620167792
1605,3.578714371,-1.862916946,10.07095146,-12.61815262,-10.08185387,-0.080263868
1606,3.613184214,-1.903336883,10.10931492,-10.25980282,-2.878515959,2.036747932
1607,3.554046392,-2.104725599,9.824857712,-7.142115593,3.126254559,1.096345425
1608,3.595726728,-2.465318203,9.768089294,0.198095039,7.176211834,0.062270883
1609,3.16848588,-2.073376894,9.808911324,-0.284768403,4.695704937,1.392549753
1610,2.963221073,-1.174719572,9.522626877,0.383678257,-1.367417216,4.158477783
1611,3.183955431,-1.987264514,9.966133118,-3.706555367,-2.496304274,7.357960701
1612,3.668875456,-2.244459391,9.935416222,-9.553687096,-2.519933462,12.73540878
1613,3.699711561,-2.176157713,9.907112122,-9.813121796,7.728980541,15.27276421
1614,3.147471905,-1.879230976,9.822771072,-14.48977375,11.81120014,10.16182899
1615,3.44583559,-1.553466201,9.40073204,-12.05261421,12.08371449,8.053026199
1616,3.242065907,-1.701896429,8.808548927,-7.780583382,15.49289131,7.430887222
1617,3.603736162,-2.097872972,8.697600365,0.334675044,14.20779228,6.623648643
1618,3.570311069,-2.069428444,9.442393303,3.642930031,16.86334801,6.401817799
1619,3.349578142,-1.907236099,9.813199997,4.074459553,13.27694416,7.831897259
1620,3.277911663,-1.76819241,9.260170937,3.204483747,10.31046295,10.25768852
1621,3.664993525,-2.189738989,9.348809242,10.11816692,5.279887676,8.29983139
1622,3.568545341,-1.461665034,9.768551826,10.111022,4.899858475,3.616713762
1623,3.873672724,-1.257445455,10.25961876,8.84040451,0.160642892,-1.030239105
1624,4.271028042,-1.680644274,10.49594593,-2.416962624,-5.423048496,-9.01661396
1625,3.643148661,-1.942759991,10.10663128,-4.354753017,-15.36837959,-7.677120686
1626,2.997907639,-3.558923244,9.550211906,3.749364138,-35.09854126,-7.737028122
1627,2.637963057,-2.482749939,12.26161194,-6.964318275,-47.58627319,-9.866209984
1628,2.535183907,-1.646173477,12.87409878,-16.30414772,-78.38250732,-9.13939476
1629,2.840625286,-2.047050476,9.330408096,2.861732244,-119.7846069,-15.1103735
1630,4.222945213,-1.418556571,8.222866058,30.17908859,-149.5654144,-26.03402328
1631,6.359646797,-1.254243374,7.541892052,23.81719971,-180.2753296,-34.97068024
1632,7.829550266,-1.851439476,7.341787338,22.47548294,-199.1743622,-34.49699783
1633,8.050840378,-1.455188394,7.159045696,9.730849266,-208.786377,-33.96310043
1634,8.011111259,-1.152873874,7.203585148,-0.872305989,-212.6981659,-33.37191772
1635,8.065442085,-2.173254728,7.682724476,-1.629848838,-218.0313263,-32.35581589
1636,7.963205814,-3.156505585,7.759955406,2.414234877,-223.9185333,-34.33407211
1637,7.489783287,-2.936049461,7.517792225,15.75630093,-224.3730011,-36.44353867
1638,7.337224007,-1.34645009,8.013688087,20.62938499,-218.235199,-38.24297714
1639,7.068890572,-1.204272747,7.888601303,17.07420731,-208.687561,-32.68670273
1640,6.223908901,-1.517647743,7.748785019,7.43715477,-194.146225,-37.67519379
1641,7.183507919,-2.741963625,7.641940594,5.308945656,-171.9954376,-26.02567673
1642,6.571230412,-2.425805569,7.253181934,3.353583813,-144.9558563,-22.70990753
1643,7.557610989,-1.94216013,6.348034382,3.072370768,-120.1629868,-29.32983398
1644,7.837874413,-1.662317276,5.916879177,-1.670165777,-88.87122345,-29.17259598
1645,8.085961342,-1.39595592,5.966062546,-2.156508446,-62.71943665,-24.61611938
1646,8.051290512,-0.649394214,5.627477169,-5.765690804,-48.65982056,-16.28515625
1647,7.927020073,-0.523526907,5.427682877,-2.058046103,-33.03670502,-5.549467564
1648,7.860374928,-1.340446949,5.87428093,-11.8339901,-13.60919571,-0.423903465
1649,8.037662506,-1.607880235,6.308168888,-14.19097328,-11.18366814,2.130716085
1650,8.489263535,-1.499704123,5.336292267,-9.141307831,-9.539059639,6.794625282
1651,8.597869873,-1.840972424,4.336308956,-6.77049017,23.91455269,7.887238503
1652,8.57497406,-2.133780003,3.141612291,-10.1074934,68.36147308,6.932520866
1653,8.449154854,-1.947518826,2.792921305,-11.29301739,115.3441391,9.732931137
1654,8.321269035,-0.454197347,2.873706579,-11.09220886,141.9296722,15.06294441
1655,7.007069111,0.669365168,2.318200827,-16.52093506,151.1912384,26.99285889
1656,5.20885849,1.128947139,2.96255827,-22.92033195,158.5061188,36.52096558
1657,5.388997078,0.084265105,4.348060608,-26.60399437,164.6539612,43.1099205
1658,5.689637661,-1.21625495,5.416634083,-23.65690994,170.0126343,46.85427094
1659,5.656047821,-2.228736877,5.690635681,-6.804151535,172.4415894,46.44138336
1660,5.895116329,-2.457536697,5.702045918,12.04811764,172.2358246,42.89388657
1661,5.540013313,-1.266013861,5.506154537,23.49467278,174.09021,33.3242569
1662,5.618722916,-0.012612935,6.291263103,17.13614464,168.673111,22.58081055
1663,5.855987072,0.095050953,6.120687962,8.547520638,163.1139832,17.14283371
1664,5.927616596,0.949378967,6.063737392,6.674102306,156.5296326,18.6690979
1665,5.250937462,1.13983357,6.905210018,-2.09649682,151.8418121,23.06558418
1666,4.812111378,-0.086424373,8.059691429,-24.16805458,146.5270538,25.09652901
1667,5.33349371,-1.843622327,8.960555077,-43.83745193,139.7686768,26.77985764
1668,6.030957699,-2.480844259,9.504554749,-43.1358757,137.8664703,27.17914581
1669,5.894813538,-2.853778601,10.22720814,-33.37963486,136.42276,24.78305435
1670,4.980648041,-3.147446871,10.52407074,-12.97775459,126.6557083,16.88502502
1671,5.27957058,-2.962939262,11.94311523,0.453086734,121.6811295,7.456399918
1672,6.709365368,-1.697517395,11.00609016,2.717190742,105.1960449,0.887578785
1673,8.226930618,-3.089087009,11.26018429,12.18244171,83.3626709,-1.395312309
1674,10.57052326,-3.591240406,11.51194,-8.639502525,61.98499298,7.529579163
1675,12.14048862,-1.864994168,11.6113739,-21.76965332,65.59811401,8.343394279
1676,11.32310867,-1.24080801,10.14456272,-24.0045681,63.71156311,8.277834892
1677,8.943955421,-1.613888979,8.42913723,-7.958222389,32.91252518,13.37757969
1678,7.8473773,-2.624974012,7.402604103,-0.871281683,15.22099686,17.29904747
1679,7.1814785,-2.138772488,5.689292431,-7.707745552,10.4070282,17.84827232
1680,6.950454712,-1.637038827,4.016685486,-4.212703705,41.27378464,26.71568489
1681,4.441548824,-1.294786096,7.042640686,-3.659361839,115.5006714,30.7317543
1682,1.017276883,-0.930869043,8.953010559,-8.708193779,133.3324585,38.7267952
1683,-0.741276979,-4.301924229,10.18873978,-2.464878321,107.5671234,43.16497421
1684,0.498841852,-6.922208786,9.590128899,-21.54232597,106.2173386,30.6838913
1685,0.787235439,-4.411380768,8.065747261,40.33658218,106.1910629,20.93493462
1686,0.972416759,-0.645289063,7.912355423,67.68049622,97.55219269,21.88092422
1687,-0.683361888,0.863629103,9.594144821,46.55317307,72.74923706,19.75558281
1688,-1.730436802,0.279928952,10.4764843,24.90453911,63.45916367,19.22290039
1689,-0.525399804,-0.974287987,11.52284527,7.697852135,71.06412506,19.17789078
1690,-1.799677968,-1.061349034,10.72492123,2.080557585,63.00056076,18.06984711
1691,-2.849326134,-0.546530664,8.976838112,-2.595990181,36.61706543,17.10129547
1692,-2.803874493,-0.92928046,7.840970039,-17.2339344,7.642223835,13.32015896
1693,-1.585587502,-1.503045678,8.035610199,-25.69812393,-9.531246185,12.95696163
1694,-1.425627589,-2.450833082,8.892208099,-25.86784172,-16.05083847,11.10282516
1695,-2.275417089,-3.066066742,9.669711113,-26.40262032,-24.19114685,7.662983894
1696,-1.761717081,-2.211522818,10.18586063,-31.20745659,-31.02828217,2.232424259
1697,-1.87116015,-2.860991001,10.3939352,-41.59528351,-40.95007706,-0.738314092
1698,-1.376288295,-3.813844919,9.89836216,-40.40445709,-42.53676224,-3.627231359
1699,-0.604888618,-4.199097157,9.726255417,-24.05698204,-48.00270462,-4.540044785
1700,0.458274394,-3.714295864,10.25770855,-7.973485947,-54.43719101,-7.382581711
1701,-0.207654268,-2.257843971,11.35268497,8.607284546,-58.02997208,-3.764293194
1702,-1.465584755,-1.079769373,10.43502235,23.29917145,-75.55927277,-2.103502035
1703,-0.43324095,-1.235154986,9.656267166,39.25607681,-93.355896,3.218435287
1704,0.38310945,-4.310230255,10.20859146,45.94862366,-86.23166656,1.983162045
1705,1.749346256,-6.456677437,10.89517307,45.4339447,-63.37496185,-0.64343673
1706,2.070032835,-3.611990213,11.60437489,42.67538452,-43.23203659,-2.292872429
1707,1.943747163,-1.174788713,11.49160957,60.35249329,-25.71723938,-5.467158794
1708,1.363279104,-1.578183532,13.06542969,42.51443481,-24.29772758,-6.52186203
1709,0.694885373,-1.767207146,12.60595417,17.68239784,-36.74461365,-3.265343904
1710,0.857916415,-1.676412702,10.80001926,20.2156868,-47.9500618,-2.724538326
1711,1.379359126,-1.966531277,10.14022064,22.46576118,-47.62621307,-5.040609837
1712,1.862194538,-1.691315532,10.60564709,14.86688519,-43.72763443,-8.569217682
1713,1.788392186,-1.355878949,9.456604958,14.17715263,-45.22353363,-11.30930614
1714,1.708991766,-1.148073673,9.122140884,30.65460014,-43.61000443,-10.96496105
1715,1.98485744,-0.901553929,9.683408737,29.21337128,-40.60562515,-10.11043549
1716,2.45089674,-0.249733791,10.2242651,17.4241581,-31.14843178,-6.873411179
1717,2.494310617,-0.56742394,10.96150398,6.905955315,-24.70848083,-2.659788847
1718,2.308047056,-0.976890802,10.9081068,-3.871130943,-23.82667923,-2.151515722
1719,2.262414217,-0.813513577,10.14025879,-3.459317446,-26.82312584,-1.63662374
1720,2.305435658,-1.406030655,9.999659538,-1.163709641,-27.32076073,-2.634804487
1721,2.585877657,-1.719585776,10.2258997,0.382693172,-26.97491264,-4.870363712
1722,2.589988708,-1.895565033,10.36539364,1.784550071,-26.25601387,-4.787549973
1723,2.577828407,-1.964452147,10.07123375,6.800513744,-23.97617912,-5.459282875
1724,2.706339121,-1.985058188,9.930811882,10.49006081,-21.84833717,-5.967598438
1725,2.910794258,-1.714465022,9.957183838,10.20388508,-17.12458038,-4.879297256
1726,2.969973803,-1.395246625,9.992669106,8.155656815,-15.89484406,-3.469954729
1727,2.866043091,-1.532839656,9.917127609,4.959691525,-12.98468876,-3.853138685
1728,2.974122286,-2.018316507,9.937949181,6.372547626,-12.15689278,-3.705590725
1729,3.146728516,-2.599398851,10.22952175,8.977698326,-7.789952755,-4.863944054
1730,3.297060966,-2.554429531,10.54136753,13.85169983,-2.782246113,-6.494951248
1731,3.218632936,-1.043577194,10.49630165,14.31676388,0.027219923,-9.009315491
1732,3.40843749,-0.942260265,10.52755928,14.71190834,0.547222376,-11.91939735
1733,3.269956589,-0.369165748,10.56878757,10.9726305,-0.94054395,-10.16593838
1734,2.847142458,0.485410452,9.889178276,11.35192776,1.317620516,-7.24288559
1735,3.005758047,0.331125289,9.609615326,5.299584389,10.64990139,-8.036425591
1736,3.511514902,-0.299198806,9.79857254,-10.92939854,11.66943264,-6.468429565
1737,3.576880932,-0.283136725,9.420764923,-21.96062851,12.82514,-1.911730051
1738,3.138266802,-0.782556295,8.539603233,-15.77401829,17.84134293,2.458132505
1739,3.441609621,-1.094621778,7.948338985,-14.74236965,22.91583252,2.885214329
1740,3.328706503,0.282604665,7.386277676,-10.61087894,26.86442947,5.771172047
1741,3.141224861,1.488525271,7.621143341,-9.725042343,27.99380493,11.95009518
1742,2.890655041,1.232052922,7.359109402,-19.60853577,40.84539795,11.70583725
1743,3.049560547,-1.381843686,8.565403938,-47.85005569,40.21556473,13.80685234
1744,2.878122091,-1.957555413,9.055215836,-32.89374161,43.23373413,22.75186729
1745,2.322506189,-1.532795668,9.421935081,-27.12059784,31.40633011,22.03210068
1746,2.397330284,-2.292846918,10.6179018,-32.4756813,13.75280094,13.30073357
1747,2.213769913,-1.601785302,11.09471321,-33.94647598,0.913308024,7.366071224
1748,1.756276011,-2.139942646,11.6143837,-43.56539917,-12.84130859,2.740527391
1749,1.014216185,-2.823652506,12.08189964,-49.70598984,-51.77966309,1.062267423
1750,1.335632086,-3.28215313,10.84321022,-19.55864525,-97.17916107,-2.859865904
1751,1.84883821,-3.401794434,10.20023346,12.27451134,-124.9670029,-11.79888821
1752,2.710393429,-2.143221378,9.775572777,42.59569168,-160.8721924,-18.0280056
1753,4.29638195,-1.20301199,8.774692535,44.34014893,-194.0909576,-24.03851891
1754,5.939424038,-1.689357281,8.499814987,21.01296043,-216.8751221,-17.01659966
1755,8.129248619,-1.973011494,8.480059624,19.30360794,-225.6131439,-12.22194195
1756,9.221204758,-1.609084129,8.951188087,16.82282639,-218.164978,-14.89928818
1757,7.962176323,-1.490582228,9.242046356,8.23432827,-214.2685089,-18.13988495
1758,6.789194107,-1.245434999,9.532314301,1.0078758,-221.738205,-20.45195961
1759,6.868220806,-1.830711365,9.778982162,-0.896267474,-225.9861908,-16.78859711
1760,6.925795078,-2.261975288,10.38687038,3.777545929,-222.0874481,-25.17111206
1761,6.986651897,-1.927304387,9.523949623,-3.480365753,-222.7038269,-36.04079437
1762,5.800161362,-2.237700462,8.54460907,-17.13855934,-202.7339325,-35.56217575
1763,6.807231426,-2.487508774,8.067778587,0.175267711,-171.5555573,-40.87599945
1764,7.381740093,-1.891901612,6.610491753,9.466775894,-144.3313293,-37.45057678
1765,7.55607605,-1.73733139,6.171850204,6.425803661,-117.3890152,-38.27143097
1766,7.388299942,-1.434607506,6.157054901,-0.326084852,-83.67379761,-36.00863266
1767,7.160959721,-0.868149996,6.15080595,4.620163918,-53.64135742,-30.62004852
1768,7.471798897,-0.613626599,6.361553669,1.564785242,-35.02586365,-22.90106773
1769,7.787865162,-0.803808272,5.788043499,1.251650333,-20.92528534,-12.19224453
1770,7.634698868,-1.119434953,6.386826992,-6.863521576,-19.20946121,1.628771305
1771,8.349301338,-1.60151124,6.112884998,-30.46146584,-13.34596825,9.379896164
1772,7.792196274,-1.35837996,5.63931942,-32.567379,-8.040090561,16.77564621
1773,7.40218401,-1.579012394,5.277521133,-23.41711998,10.46516895,18.99670029
1774,8.300967216,-2.530507565,4.840533257,-43.93904495,48.0945015,21.55145264
1775,8.776906967,-2.928150415,3.572379589,-54.93909073,80.13119507,23.5077877
1776,7.981686592,-1.718795776,2.293561935,-29.73653412,107.4076157,30.11071205
1777,6.829231262,-1.07349515,3.216951132,-4.709946156,126.0480118,33.35700607
1778,6.144207001,-0.401903182,4.239379883,-2.585337877,132.8630066,32.7141571
1779,6.246057987,0.105089985,5.263459682,-2.00543189,140.6681824,36.97082901
1780,5.986689568,-0.544380009,4.787249565,-8.395813942,147.5395813,42.62405396
1781,5.646105766,-1.504804015,4.884231091,-4.451840878,157.1790619,48.07292557
1782,4.95113945,-2.306796551,5.711360931,-6.106277943,166.2864075,48.12582016
1783,4.432024002,-2.615943432,6.51100111,-5.425348282,169.5236816,46.49721146
1784,4.92852354,-2.278261185,6.764061928,-1.911908269,170.3691254,43.56317902
1785,5.024780273,-1.969647646,7.159542084,4.826916218,172.6578674,40.54279327
1786,4.563316345,-0.915129721,7.869572163,9.963418961,166.6491547,37.18380356
1787,4.517608166,-0.239695072,8.082583427,13.95072842,154.9060822,31.04633904
1788,4.883872986,-0.820293069,8.468912125,3.484762192,147.1666107,28.70295906
1789,5.849399567,-1.609527946,8.68501091,-11.72890663,144.6249847,30.85840988
1790,5.974752426,-2.017518759,9.479296684,-18.74547005,143.335968,32.52960968
1791,5.810012817,-2.34102273,9.957051277,-21.31662369,145.5058594,29.29817963
1792,5.745600224,-2.744008303,10.05008793,-25.96259689,153.6957855,24.78325272
1793,5.113642693,-2.654399872,10.60717869,-32.9512558,145.1957245,21.62953568
1794,4.602731228,-2.177933455,10.71556091,-32.22929764,116.8653564,19.54814148
1795,5.61416626,-1.966389418,9.729584694,-14.9724617,73.78746033,21.29308701
1796,8.011334419,-2.890895367,9.823687553,-29.67759514,57.01987839,16.19953156
1797,9.892410278,-3.001579762,10.10516453,-59.45426178,64.08331299,13.74390316
1798,9.393386841,-2.615126371,9.870203972,-60.96215057,50.31544495,21.34256935
1799,8.137261391,-4.231752396,9.919993401,-51.04748917,57.40554047,22.69926643
1800,7.451216221,-3.805214882,8.395213127,-20.06072998,44.4667511,25.51193428
1801,7.742733002,-2.255561829,6.555305958,9.731758118,19.88697243,28.67310333
1802,6.913944721,-2.838165522,5.606300831,13.53612041,-0.103450142,32.42623901
1803,5.00648737,-4.37358284,4.945627213,10.75823116,3.59559226,41.4834404
1804,3.625677824,-4.822871208,8.031065941,-2.98312521,60.06120682,37.42884827
1805,-1.23586762,-1.703148246,4.424115658,4.726890564,54.52466202,32.00885391
1806,-2.138936043,-2.656725407,10.61127377,7.762491226,73.98246002,22.66744232
1807,-1.037916183,-4.716049194,10.41406536,-12.07610989,74.84073639,7.402433395
1808,1.739489198,-5.766364574,10.3324585,46.75516891,65.27468109,9.469917297
1809,2.328904867,-2.898262024,10.05429459,59.12609863,57.44097519,11.39011574
1810,0.847090185,-0.871679306,9.557908058,49.71467972,42.59807205,9.985673904
1811,-0.016402982,-2.029729366,10.89387989,37.95679474,35.65176773,12.63783169
1812,-0.299378395,-3.887185574,11.06939125,43.40731812,38.45610809,12.10084534
1813,-0.614048004,-3.417702675,10.13284397,59.88873672,26.76304054,8.63867569
1814,-1.663674712,-1.420058012,9.057653427,58.44665909,7.712719917,7.424035072
1815,-2.827898502,-0.609950542,8.396771431,40.16473389,-6.932371616,12.06267357
1816,-1.270066738,-1.390060186,8.600705147,16.31372452,-6.808588982,10.03485203
1817,-0.548391521,-1.868710041,9.239525795,-0.038726423,-5.631454468,10.20747852
1818,-0.708656728,-2.23748827,9.951489449,-7.30502224,-10.17506981,7.635829926
1819,-0.631463647,-2.403837919,10.38951015,-7.146019936,-13.27758884,0.813203871
1820,-0.333145142,-2.102366686,9.847644806,1.516541839,-11.79285622,-6.571025848
1821,-1.169291258,-2.478778362,11.59368706,-0.240362838,-21.45759201,-9.102079391
1822,-1.301525116,-2.31644702,9.808392525,8.874369621,-44.96189117,-10.59902
1823,-0.710532963,-2.343088865,10.09482574,20.96196747,-45.85053253,-13.13542557
1824,0.172553807,-2.322935104,10.76419353,9.477631569,-44.5956459,-11.29306602
1825,0.213888332,-1.8219558,10.73833561,5.596082687,-43.88663483,-9.903279305
1826,-0.094381258,-2.18119359,11.01748753,8.006716728,-53.2798233,-10.9092226
1827,0.54521054,-2.709179878,11.17141056,9.946975708,-58.69403458,-14.51656532
1828,0.946660459,-2.675909996,10.5512352,14.20149517,-65.30000305,-15.53023338
1829,1.315722466,-2.725377798,10.26463127,19.55353546,-59.59954071,-13.23388863
1830,1.306082726,-2.254464149,10.14772511,24.33183289,-52.47834396,-9.97641468
1831,1.226372242,-1.974542975,10.54307365,24.20661926,-50.8521347,-7.246126652
1832,1.42875433,-2.124774933,11.16601753,14.27122879,-50.48323822,-6.738889694
1833,1.71054709,-2.133336782,11.16589642,7.116080761,-53.11772537,-7.82545042
1834,2.014122009,-2.321981668,11.23131657,0.920331478,-54.13751602,-7.857290745
1835,2.304033041,-2.305552483,10.86230087,-5.17404604,-47.86383057,-8.260120392
1836,2.239331722,-2.097745419,10.52404499,-4.694417,-46.61527252,-8.044865608
1837,2.191866398,-1.951956749,10.48874092,-1.763679624,-47.85309219,-9.077857018
1838,2.30803299,-1.752934933,10.30753994,4.481506348,-44.0968399,-11.62890339
1839,2.482280731,-1.725877166,10.37809563,6.840503216,-43.19913101,-11.61845303
1840,2.804099798,-1.899949789,10.25802326,4.25954628,-40.70595932,-11.06816673
1841,2.893726349,-2.087957382,10.52323627,4.277796268,-41.59346008,-8.379983902
1842,3.1119802,-2.229650736,10.76740265,1.975274086,-37.21800613,-7.937959671
1843,3.230777264,-2.494968176,10.4971323,-0.153638601,-38.30593109,-7.336131096
1844,3.204996586,-2.536951542,10.27402496,-0.244602472,-36.56980133,-6.686291695
1845,3.359814882,-2.413566113,10.18616486,-2.098744154,-32.08694458,-5.068367958
1846,3.343342066,-2.230358362,10.20184135,-7.476006031,-28.9827137,-3.778723717
1847,3.198227167,-2.073262215,9.926894188,-9.745213509,-24.07194138,-3.070246458
1848,3.160268068,-1.486369967,9.880681992,-9.583332062,-18.69337463,-0.288175315
1849,3.379687071,-1.232356787,9.844545364,-12.61615944,-19.54042435,2.331125021
1850,3.670517206,-2.032776833,10.13553905,-14.58794212,-15.8932066,4.337101936
1851,3.761719227,-2.811437845,10.04209614,-14.60803127,-13.42090702,6.672277927
1852,3.643103123,-3.277855635,9.950922966,-21.02526474,-16.81771278,7.018967152
1853,3.607857704,-3.076295137,9.940520287,-23.54559898,-14.00282097,6.329126358
1854,3.889034271,-2.564340115,9.895321846,-17.59147835,-11.1485033,5.172275543
1855,3.983519554,-2.261711121,9.856611252,-14.02902985,-5.061644077,5.072638035
1856,4.175076008,-2.485314131,9.555674553,-13.57045937,4.13262558,6.620363235
1857,3.782318115,-2.933440924,9.449080467,-10.8384409,10.03669167,7.025954247
1858,3.369899988,-2.871345997,9.352279663,-5.397910118,8.878119469,3.718760252
1859,3.814120054,-2.487478256,9.192073822,-0.451443225,8.866043091,1.550708532
1860,3.729719162,-2.129325151,9.221424103,-5.94477272,17.48921967,0.482620746
1861,3.389325619,-2.445269346,8.854174614,-11.44855309,34.58653259,-1.333934903
1862,3.643063307,-3.147313356,8.417957306,-10.32649803,34.36938095,3.065975666
1863,3.538232803,-2.302343845,8.281067848,-4.193882942,23.70262146,1.157549143
1864,3.278325319,-0.810467541,8.724913597,-1.765779495,16.46915436,-0.68949455
1865,3.605349302,-1.149630427,9.673046112,-9.565268517,12.66027737,3.39132905
1866,4.027439594,-1.965596318,9.222923279,-16.15630913,15.98003578,3.800432205
1867,3.937312603,-2.296324968,8.979945183,-11.03504467,22.41870499,5.361544132
1868,3.821503162,-2.386336088,9.04859066,-5.355083466,23.75242615,5.882750988
1869,3.605385303,-1.686995506,9.340535164,-2.002490759,30.1774025,-0.189681873
1870,3.423090219,-2.198820114,9.423021317,-11.02143669,25.61312866,-1.726665616
1871,3.169073582,-2.983700991,9.35089016,-15.38163185,18.02055931,-1.642366171
1872,2.438686609,-4.248374462,9.725696564,-3.219837427,9.454641342,2.01388216
1873,2.603471994,-3.485736132,10.19631958,20.46543312,-13.41273594,-8.325543404
1874,2.71283102,-3.715435028,11.76104927,49.89337158,-46.96166992,-15.28412437
1875,1.618367553,-3.272085905,14.70194626,9.0734272,-81.50131989,-22.63848305
1876,1.413586497,-1.328849196,11.40958214,-1.183472991,-128.760788,-15.31422329
1877,2.936509132,0.421877146,7.494095325,54.73438644,-148.3841095,-16.15806007
1878,4.43955946,-0.739040136,7.005671024,28.70483971,-182.3516998,-31.18026161
1879,6.89593029,-1.326623082,6.379356861,9.365793228,-207.8377228,-29.4737072
1880,8.195448875,-1.142649412,7.320642948,7.659771919,-215.048584,-24.43364525
1881,8.32096386,-0.796634197,8.13098526,1.853057027,-220.8755035,-28.64242172
1882,8.271538734,-2.243025541,7.850735188,-3.592644215,-224.1506042,-31.19130516
1883,8.130929947,-3.181564569,8.364625931,-1.078300357,-229.3257904,-33.45537186
1884,7.714596272,-2.811233282,7.661777973,2.47163868,-229.5245209,-31.24245644
1885,7.741147995,-3.128983021,7.76369524,4.117921829,-227.9551849,-33.26511002
1886,7.749613285,-3.028297663,7.37179327,10.18106747,-221.5065765,-45.21663284
1887,6.700287342,-3.21220088,7.254011631,10.34897995,-211.6903992,-40.47424698
1888,6.227435112,-3.165845871,6.864994049,16.5789566,-191.4689331,-43.00995255
1889,6.888795376,-2.49706459,5.863443375,15.70725346,-161.6399231,-40.88641739
1890,7.118316174,-1.879079103,5.657521725,10.45036125,-129.1976624,-36.74454498
1891,7.331351757,-1.796587586,5.086743832,5.104291916,-92.39299774,-33.31731033
1892,7.836209297,-1.755146742,4.870152473,0.236095205,-59.34006882,-31.19932175
1893,7.931065083,-1.438759208,4.442649364,7.887122631,-29.65305138,-25.35127068
1894,8.219079018,-1.359445333,4.787838936,10.99896431,-4.196469307,-19.44342804
1895,8.049429893,-1.142948031,4.888297558,11.81927872,15.7191782,-13.71014786
1896,7.584431171,-0.499960363,5.713962555,10.6603384,29.42776489,-7.356902599
1897,7.708140373,-0.621334493,7.354003429,2.417728186,36.36327744,0.428227127
1898,7.919658661,-1.0586164,7.13496685,-20.07066345,36.09790039,5.831996441
1899,8.502203941,-1.173762918,6.610625267,-23.81350708,35.76034927,14.01694393
1900,8.82749939,-0.901579738,5.626532078,-40.09504318,55.79143906,16.92723846
1901,8.407696724,-0.932341218,4.077956676,-47.34174728,80.53110504,18.7947979
1902,7.350845337,-0.0638244,2.942593336,-33.23817062,92.71627045,20.79470062
1903,6.33474493,0.564314306,2.082596779,-4.294078827,104.1804428,25.45221138
1904,6.079641342,0.330863386,3.28770256,-3.075743198,120.1851425,25.8229351
1905,6.511964798,0.15100944,4.2437253,-15.14091587,130.3683929,28.47748566
1906,6.167109489,-0.376087546,4.875637054,-20.60535812,136.8095703,35.96369171
1907,5.616351604,-0.836100757,4.871685505,-16.51197052,142.7443695,41.72216415
1908,5.137998581,-1.363504887,4.645327568,-20.55745316,150.5617523,43.50056839
1909,5.470571518,-1.771440148,5.305356026,-28.57761002,152.9899445,46.55905533
1910,5.987056732,-2.126831055,5.997441292,-34.85762787,155.7261505,47.87519073
1911,6.429306984,-2.163212299,6.759310722,-33.07629395,156.0635529,46.37732315
1912,6.46053648,-2.401544571,7.59245348,-28.65771484,148.8386993,47.62906265
1913,6.651447296,-2.500727415,7.722147465,-20.62765884,138.7528839,42.28982544
1914,7.18432951,-2.793246508,8.583928108,-12.24064922,138.689621,35.78419495
1915,8.280892372,-2.841047049,8.978189468,-12.41019344,145.61203,28.50230026
1916,7.779891014,-1.932230115,8.765106201,-7.684202194,149.2133636,21.06000328
1917,6.480256557,-1.9846071,9.030791283,0.717161775,141.5401154,11.93454266
1918,5.841545105,-3.564036369,9.189634323,12.26314163,116.6566238,1.656741738
1919,6.101946354,-3.772090435,9.184521675,28.41555595,84.18528748,-1.895642161
1920,8.38071537,-1.345745802,8.102528572,39.63047791,48.4641037,4.275080681
1921,12.2313509,-3.356692314,9.508008003,11.79633999,58.70896149,5.616071701
1922,13.01907253,-5.535809994,9.388991356,-32.41419983,75.21888733,7.457629204
1923,10.73095226,-3.650231123,7.808233738,-14.52833652,59.34677505,14.0261488
1924,8.694476128,-1.669565439,7.326598644,14.92706966,53.34871674,18.42271805
1925,8.677944183,-0.22957772,6.385023117,19.22940826,40.82853317,18.48576164
1926,8.857636452,-1.226436377,5.832016468,9.490715981,18.69113541,23.14294624
1927,7.04596138,-2.527647018,5.102892876,-1.066171646,20.56887054,28.62833977
1928,5.341594219,-3.07583952,6.292624474,13.06529427,52.8559761,31.16434669
1929,1.816549659,-4.217501163,10.56441689,7.441268444,122.4245834,22.06734467
1930,0.41923663,0.046736263,8.591898918,0.434053898,116.2936859,15.5776062
1931,1.900350451,-1.075574636,12.78362179,-6.371163368,124.6302032,17.35023308
1932,3.997702837,-4.480952263,13.46301842,-36.43742752,120.4713821,16.25717354
1933,2.151741505,-1.686718702,7.823518753,20.72008896,88.89768982,23.19713211
1934,0.976419151,-0.427428037,7.959221363,42.53765869,78.33429718,13.07370949
1935,0.124435961,-0.970844924,9.117129326,3.030241966,71.13521576,9.383113861
1936,-0.091366813,-2.129207134,9.912277222,-6.521656513,61.33215714,15.54531288
1937,0.158923745,-3.953134537,10.64715099,-12.45328617,60.53519058,11.55396652
1938,-1.465653062,-3.413095951,9.965115547,-11.31479549,54.82740021,3.434969425
1939,-1.257847786,-2.912566662,9.593614578,-14.32072544,34.12716675,-3.438707113
1940,-2.327533245,-2.131892443,8.439858437,-4.220516205,26.10885811,-4.434817791
1941,-0.142598972,-2.269994736,8.472498894,12.15958214,37.96082306,-4.108063221
1942,-0.063578248,-2.832149267,9.601787567,23.16827774,17.55892754,1.445495367
1943,-1.457331896,-2.814907074,10.15446854,10.8561554,6.968592167,-2.967239618
1944,-1.283424854,-2.701303005,10.0280695,9.131916046,5.897069931,-2.923607349
1945,-0.350022048,-2.329283714,9.862380981,10.54413891,4.149169922,1.868511438
1946,-0.9864344,-3.049127102,9.836044312,13.97293091,-6.621586323,1.62265563
1947,-1.059864163,-2.991923571,9.81328392,17.20305443,-13.66507053,2.442494869
1948,-0.982738376,-2.720332146,10.18470955,18.08651352,-21.79956436,-0.930089176
1949,-0.386657029,-2.608269453,10.36074638,16.98652649,-27.58451653,-3.638771296
1950,0.167865217,-2.467190266,10.7106266,15.43322945,-25.10494041,-5.019412994
1951,-0.481332481,-1.938448191,10.34041309,21.01729774,-31.01670647,-5.016932011
1952,-0.596300483,-1.907406092,9.926236153,29.856493,-37.43153,-6.602002621
1953,0.256328225,-1.975134015,10.12465954,29.31502533,-40.70799637,-5.838633537
1954,0.4919025,-1.835183501,10.49410439,25.81682014,-42.81288147,-3.676024914
1955,0.342367262,-1.7301085,10.82999706,17.39462471,-42.68067932,-5.364421844
1956,0.385338128,-1.905164838,10.50373459,10.56571579,-40.81132507,-6.60695982
1957,0.6464926,-1.991298437,10.25514507,7.933043003,-39.7924881,-8.222793579
1958,0.582161665,-1.931107163,10.07688236,7.257030964,-45.43159103,-8.762166023
1959,0.737652361,-1.708062172,10.43423653,9.294164658,-49.059021,-8.135583878
1960,1.054557323,-1.500607848,10.58544922,8.292695045,-48.5035553,-8.149884224
1961,1.306949258,-1.206389189,10.51912785,7.288878918,-49.77313232,-9.300729752
1962,1.503409147,-1.047551036,10.45914459,6.101793289,-54.16213608,-11.55274105
1963,1.689096689,-1.155947685,10.57744122,2.606084824,-57.08452606,-11.31704712
1964,1.997618675,-1.695021629,10.75469017,1.347013354,-57.22023392,-10.83502388
1965,2.280800104,-1.863085866,10.87548065,2.028847218,-52.52854919,-11.44899178
1966,2.360307932,-1.665228367,10.80195141,-0.327089876,-48.48607635,-11.95666504
1967,2.243777275,-1.571776509,10.31311321,1.872490406,-48.42169571,-11.80454731
1968,2.4492383,-1.723322392,10.10971928,8.562203407,-52.85097122,-11.39016342
1969,2.714966536,-1.930402875,10.44572067,5.913014412,-52.78308868,-9.262261391
1970,2.874136448,-2.146430016,10.47115326,-2.543863773,-50.61724091,-6.140381336
1971,2.987000942,-2.181890011,10.16075134,-4.331575394,-50.08544922,-6.053007603
1972,3.104844332,-2.244241476,9.972866058,-3.439807177,-48.02305222,-5.496267319
1973,3.105926752,-2.139902115,9.999512672,-0.8463853,-49.40660095,-3.488742352
1974,3.22106719,-1.807591796,10.39033413,-1.30756557,-50.14719009,-1.520985126
1975,3.551830769,-1.741088986,10.47145653,-6.183907986,-46.85870361,-1.184654236
1976,3.971044064,-1.864611506,10.11919022,-7.665083408,-43.90379333,-1.201083899
1977,3.981147051,-2.041148901,10.12127876,-3.932026863,-41.02925873,0.573023438
1978,3.945107222,-2.079765558,10.32549763,-9.114181519,-35.22746658,4.518838406
1979,4.299755573,-2.072772026,9.885050774,-17.69960785,-27.68484879,6.791554928
1980,4.591720581,-2.03631258,9.050599098,-15.04502201,-15.9800663,7.878468037
1981,4.581481457,-2.246036291,9.090682983,-8.178287506,0.128383726,10.50210953
1982,4.739530087,-2.036828279,9.343336105,-10.44549179,8.671829224,10.80221939
1983,4.084932327,-1.587088227,9.546850204,-15.22724438,13.18405724,10.82614803
1984,4.37668848,-1.904104233,9.129353523,-13.30883503,10.61148643,13.68536091
1985,4.501662254,-1.4371171,8.466763496,-2.543575287,13.82700443,15.18414593
1986,4.313800812,-1.062219024,8.809508324,-10.18087387,20.86398125,16.15225601
1987,4.399082184,-0.706238508,8.934428215,-18.30843163,23.88692284,17.93549156
1988,4.6447258,-1.614140868,8.945392609,-20.03557014,36.72042465,17.44556427
1989,4.533766747,-1.600363016,8.934160233,-6.685120106,60.52708054,11.72197151
1990,3.793078423,-1.520082951,8.444525719,10.93964767,45.13731384,9.482196808
1991,4.217491627,-4.579608917,6.512822628,2.85593152,35.58835602,1.99431622
1992,4.075315952,-5.090114117,9.077710152,14.46966553,50.16301346,-7.587881088
1993,4.273062706,-2.749675274,9.733919144,56.58970642,39.7935257,-5.353605747
1994,3.651042223,0.052054826,12.43137455,57.97745895,36.28717422,-9.569609642
1995,0.821381569,0.994926989,14.99785995,18.94964981,-0.440186948,-9.180496216
1996,0.145357177,0.273034036,14.61548805,2.783162832,-100.7982559,0.118731931
1997,1.187367558,-1.45370841,12.07277298,2.290799856,-154.0981598,4.040908813
1998,3.046765327,-2.130271673,8.091356277,12.958992,-182.1117859,9.162063599
1999,5.162041187,-1.031216145,6.633185863,24.4607811,-196.166687,0.230328277
2000,6.821092129,-1.146264315,6.121798515,9.530788422,-204.9807434,-9.868126869
2001,7.912022591,-1.905649662,6.510066509,10.46648788,-203.0976105,-17.72163773
2002,7.53281641,-1.766176105,6.9932127,20.54092026,-210.12323,-23.86194992
2003,7.184101582,-1.329443812,7.384171486,25.46614075,-217.7713776,-24.77862167
2004,7.067203522,-0.634861767,8.181263924,25.3623848,-232.8718262,-25.67606735
2005,7.274946213,-1.155746579,8.058091164,19.34835434,-243.1275482,-27.88397789
2006,7.074005604,-1.647948861,8.06259346,22.27410698,-243.9832153,-28.19600105
2007,7.331590176,-1.272261858,7.806123257,19.02866173,-230.1810913,-26.66641045
2008,7.159494877,-1.786296129,7.685148239,6.940448761,-197.8171234,-31.14291382
2009,7.235139847,-1.554326773,6.441539288,20.12618828,-167.1134644,-32.29283524
2010,7.2495718,-2.119392633,6.537167549,22.15117073,-141.9053955,-29.61379814
2011,7.651920319,-1.889793038,6.74994278,18.74201393,-109.5425034,-28.68064499
2012,8.656936646,-1.709251642,6.452417374,18.51840019,-80.14486694,-28.94170761
2013,8.803846359,-0.604131877,6.386528015,11.76796818,-57.45788193,-28.55290413
2014,7.822833061,0.114097074,6.384859085,-1.665842533,-38.52868271,-23.08728981
2015,7.217501163,-0.936494589,6.825119495,-2.512106895,-21.28255463,-18.3181057
2016,7.539410591,-1.694186568,6.419011593,-2.551616669,-9.132909775,-14.41562176
2017,8.043921471,-1.695547819,5.759022713,-1.270262718,4.755442619,-12.72407722
2018,7.93177557,-1.698375702,6.09872818,-12.71969986,16.53099823,-9.449950218
2019,8.099754333,-1.591764331,4.619710922,-31.39662552,21.77883148,-8.723731995
2020,8.45529747,-0.378666103,2.975791216,-39.27235031,56.68906403,-4.937269688
2021,8.458626747,0.278636098,3.172035694,-62.09596252,103.6410599,1.47183907
2022,7.166545391,0.903497338,3.050761223,-78.10025787,123.1958237,14.46027565
2023,6.016208172,0.759443641,1.911884427,-60.94340134,125.0308075,27.95187378
2024,5.134696484,0.15573746,2.95634675,-33.60907745,141.1615906,35.78575516
2025,5.321216106,-0.03645695,4.086639404,-31.8909626,155.5801544,35.5828743
2026,5.447787285,0.534344137,4.497525215,-34.3849144,168.3510437,40.63405609
2027,5.449611664,-0.445284307,5.734431267,-41.40381622,177.9938354,46.17023849
2028,5.371596813,-1.631460428,6.447663784,-44.31637573,185.1087799,43.83873367
2029,5.153212547,-1.722531676,6.810488224,-25.21257782,183.485321,39.84576797
2030,5.405790806,-0.232894704,6.958512783,-3.101938963,169.9715881,36.5909462
2031,5.451750278,0.055518501,6.967358112,3.259865761,158.5172882,36.55796051
2032,5.694553375,-0.130738348,7.105170727,-18.08295822,149.8427887,35.79443359
2033,6.266551018,-2.010808945,7.766741276,-34.05643463,146.1244659,26.9677639
2034,7.027587891,-2.601458073,8.60640049,-32.42242432,145.8619995,20.3440876
2035,7.873106003,-2.140452862,9.841413498,-26.03810883,149.7792816,14.58545589
2036,7.754375458,-0.029527914,9.960603714,-10.05761147,136.4311066,14.20260525
2037,7.275057316,-0.830282271,10.21294403,-9.307447433,119.4855118,19.72262001
2038,6.444025993,-2.641593933,8.098700523,-7.605475426,82.50203705,29.43146706
2039,7.725144863,-4.064885616,7.576901913,-18.04923248,53.55327606,31.25714493
2040,10.4175148,-2.810166359,8.317212105,-62.0826149,73.2519455,20.37695694
2041,12.48512554,-2.154072523,9.799002647,-72.94290924,81.57299805,20.63864136
2042,11.65462685,-3.279050827,10.05129337,-69.46234131,68.25824738,28.19947433
2043,9.360469818,-3.275216341,7.60013628,-28.42783928,64.06869507,27.41047668
2044,8.139226913,-3.274162531,7.297143936,-2.714856386,64.50392914,22.40733147
2045,7.502037525,-2.584964514,7.597193718,-9.476590157,66.12929535,18.06412697
2046,6.579182625,-2.737868309,5.017117023,-11.41491699,23.82611656,31.16638565
2047,4.621633053,-4.229430676,6.505706787,-23.99808884,30.23646164,36.55422592
2048,2.075009823,-2.791731358,6.778980732,-8.561675072,42.67313766,43.38872528
2049,0.843966663,-3.019478083,11.08814526,-9.19291687,70.99747467,44.69504166
2050,0.040350974,-3.500845909,12.34631634,-23.95123863,70.9710083,41.26028824
2051,2.087744713,-8.892354965,11.57626629,-28.1503315,58.37384415,34.08808899
2052,3.233483315,-8.500869751,8.67252636,17.51742935,61.04521179,33.46298218
2053,2.954878807,-2.288166046,8.337353706,48.33627319,52.39162445,31.74278831
2054,1.011967659,-0.408394039,9.150136948,49.36380005,52.83336639,24.91171074
2055,-0.127587199,-2.618992805,10.98506927,46.66947937,58.75429153,25.46233368
2056,0.420908213,-4.0067029,11.64022446,52.05830383,61.83784103,19.18017387
2057,0.115868405,-3.125991821,10.40759659,57.1022377,53.09228897,11.63785839
2058,-1.115113378,-1.985471487,9.118112564,53.59999847,34.47223282,10.28557301
2059,-2.032644987,-1.596919179,8.494609833,39.39267731,22.92720985,9.595543861
2060,-1.681551099,-1.394033551,8.421122551,33.77277374,16.19808006,8.934869766
2061,-1.473104835,-2.288379192,9.36728096,26.10677528,-1.137968898,9.431415558
2062,-0.394424498,-2.574759245,9.374962807,21.13424492,-4.068835258,9.286067963
2063,-0.369149268,-2.059167385,9.792924881,25.04039001,-12.84809685,12.38416481
2064,-0.280505478,-1.575197101,9.881621361,20.27852631,-16.44875717,10.12042427
2065,-0.181123704,-1.687329173,9.431872368,18.72648048,-13.33920288,4.56657362
2066,-0.150781319,-2.316840172,10.05492306,17.22502518,-15.21014309,-0.866018176
2067,-0.387888491,-1.751355529,10.2035017,15.05420494,-25.50003433,-3.317859888
2068,-0.240094215,-1.719467044,10.30371475,14.30563641,-32.62537384,-6.826776505
2069,0.375396252,-1.774686933,10.96018505,13.9120779,-34.51864243,-8.040419579
2070,0.174132511,-1.538911462,10.81973934,11.18831539,-40.46118927,-10.18202972
2071,0.238321319,-1.603313088,10.72504807,13.34195042,-43.22768784,-10.05685902
2072,0.836523354,-1.341299057,10.78315449,11.44489098,-44.5368042,-7.776234627
2073,0.907144129,-1.538742781,10.38212299,9.50060463,-49.03770447,-10.45721626
2074,0.823967338,-1.491731405,10.28866959,8.558808327,-49.60776901,-12.75603294
2075,0.965894699,-1.708564401,10.16890144,8.165176392,-48.77002335,-14.89037418
2076,1.268109083,-1.899056315,10.07372284,11.30473804,-49.44730759,-14.31852913
2077,1.694079161,-1.615933061,10.05782604,17.86303902,-50.70311356,-12.83060741
2078,1.978970408,-1.389718056,10.40922642,20.09755898,-51.12734222,-11.10968781
2079,2.190509796,-1.421803117,10.42684078,18.58963776,-48.79364777,-6.790345669
2080,2.214281797,-1.584668756,10.53430367,16.21930313,-46.28010178,-5.742538452
2081,2.614524364,-1.524321675,10.23357391,12.52245331,-41.33249283,-7.117208958
2082,2.550513744,-1.565279722,10.43722057,7.907999992,-37.22513199,-5.343560696
2083,2.371602297,-1.70257163,10.48697281,2.336197615,-38.56122589,-4.338103294
2084,2.46018815,-1.632119894,10.55064106,0.660093665,-36.6386528,-5.385192394
2085,2.773848534,-1.417676449,10.51021957,0.054625709,-34.00453186,-5.116413116
2086,2.845368862,-1.279707432,10.31020451,-0.541864455,-33.31028748,-6.289723873
2087,2.977559328,-1.579653144,10.13253593,2.222178936,-33.24133682,-5.191438675
2088,3.011332989,-1.794553161,10.31616497,7.258598328,-29.60404396,-3.217868567
2089,2.982027531,-1.790911913,10.59277534,5.58059597,-28.45879555,-3.4067173
2090,3.278565645,-1.717115045,10.58943367,1.223791361,-28.76888084,-4.216650486
2091,3.429438114,-1.561263084,10.56067276,-0.628069818,-26.48591042,-3.480064154
2092,3.269937515,-1.533653378,10.35522747,-4.537858009,-25.4103241,-2.650645256
2093,3.199339867,-1.449085593,10.06116676,-5.826223373,-24.70325851,-1.777807236
2094,3.299031496,-1.568850756,9.942960739,-4.081359386,-22.69016266,-0.455810875
2095,3.371852636,-1.625758052,9.953567505,-2.527959347,-23.74684143,1.474346757
2096,3.413009882,-1.633066893,9.930064201,0.083311915,-26.89227295,1.230097651
2097,3.529338598,-1.721867919,10.39229584,-0.36223498,-27.86478996,1.363841534
2098,4.046625137,-1.76223886,10.94395924,-4.969730854,-29.56282425,-0.227883309
2099,4.462779045,-1.349581003,11.20411301,-12.59647369,-26.96653748,-1.266596794
2100,4.933646202,-1.283878446,10.74148369,-15.35116959,-14.28522968,-0.270937979
2101,5.068049431,-1.543607473,10.08078766,-12.11826992,-0.641624033,0.009419073
2102,4.511751175,-1.751367331,9.36029911,-10.42253208,9.715550423,1.674681067
2103,3.736353159,-1.555846691,9.037823677,-19.75013351,20.4906559,1.206745863
