PacketCounter,Acc_X,Acc_Y,Acc_Z,Gyr_X,Gyr_Y,Gyr_Z
649,-2.404038906,-2.870139599,9.017819405,33.03953171,-151.799469,-14.10995388
650,5.167398453,-3.133131266,7.551361561,52.29949951,-184.5470886,-6.613660812
651,-0.141341686,-3.105128288,8.028995514,79.13482666,-124.7105942,2.559359789
652,-1.354102731,-1.608377218,12.00295925,-2.619122028,-244.3395538,-68.74713135
653,-5.042769432,2.991054535,8.338448524,-24.23806763,-27.52023315,3.22221446
654,-7.92848587,-0.580075383,11.14053535,42.42815018,-104.2294235,34.55628204
655,-8.965302467,-0.782265007,11.18044281,7.679861546,-130.0244904,11.70064449
656,2.439403296,-1.851245522,9.804458618,11.2399416,-98.64936829,6.501274109
657,6.601497173,-3.417218924,11.3454361,3.180605888,-48.78910446,-7.597662449
658,2.38121295,-3.389119387,12.8478508,6.78554821,-28.08835411,-8.159692764
659,-1.547841311,-3.210733414,13.2934885,10.38294697,-34.41889954,-11.01881695
660,-1.00630331,-2.227931499,12.40525913,12.10277843,-45.197052,-17.87246704
661,0.11333935,-1.463408947,11.04146576,12.5081892,-63.11645508,-24.36353683
662,0.272154689,-0.977457821,10.01427555,19.90048981,-65.07989502,-27.82169533
663,0.467147529,-1.281258821,10.19503117,19.61708641,-67.99580383,-25.35290527
664,1.514061809,-1.637157321,10.43092728,25.8482151,-66.29240417,-21.55090523
665,1.798446059,-1.252836943,10.56774426,32.16149521,-63.59212112,-14.01659298
666,2.089519739,-0.448163748,9.901139259,28.01663208,-63.10570908,-11.40439129
667,2.282943726,-0.483496457,9.385956764,22.2485218,-52.4497261,-10.48306847
668,1.961586833,-0.769551575,9.312082291,23.1774826,-44.26559448,-9.87101841
669,2.240807533,-0.789224505,9.752123833,24.50141525,-35.62860489,-11.13297081
670,2.575556517,-0.970362484,10.20605469,15.59496117,-35.07479095,-10.79653168
671,3.263232946,-0.953693032,10.3842411,9.567843437,-34.75502396,-8.47008419
672,3.288301945,-0.980511069,10.51734066,1.829404712,-41.32777023,-8.953960419
673,2.600183487,-0.908883631,10.62907314,-1.491039157,-39.26435852,-10.5698328
674,3.039361238,-0.95736891,10.36546326,-1.779747009,-38.20645142,-10.38413906
675,3.73909831,-0.824922562,10.03432846,7.321157932,-44.34211731,-11.92359543
676,3.884530544,-0.858556509,9.738478661,10.13462734,-46.17509079,-12.42504215
677,3.751097202,-0.999495268,9.577467918,11.31964493,-41.21531296,-12.35603714
678,3.692828655,-0.821233392,9.679660797,12.91775036,-35.32860565,-10.26633072
679,3.958186626,-0.614521861,9.867678642,11.94583988,-29.30247116,-9.98919487
680,4.727175236,-0.576061904,9.837086678,10.40397263,-28.53149605,-10.11151981
681,4.372762203,-0.622678816,9.898055077,7.441696167,-25.25875664,-11.46344566
682,4.119148254,-0.460467696,9.881493568,5.904337883,-23.28481865,-12.58101559
683,4.209934711,-0.242509067,9.978460312,6.569259167,-24.88878632,-10.5179224
684,4.326980591,-0.046469789,9.791644096,1.712796211,-25.53816605,-8.897797585
685,4.267189026,-0.260483712,9.633172035,-7.036814213,-26.15042305,-6.614114285
686,4.495930195,-0.682976663,9.556789398,-10.9090929,-25.20964813,-3.513571978
687,4.326474667,-0.977664888,9.754564285,-10.59341717,-31.62080765,-1.507044315
688,4.711071968,-0.833136737,9.688122749,-9.968461037,-33.941082,-1.650419235
689,4.733085632,-0.624795198,9.512906075,-13.27105618,-31.30029106,-3.405747414
690,4.543531418,-0.495716751,9.223753929,-19.31178856,-25.56129456,-3.067912817
691,5.285953045,-0.937441945,8.873660088,-24.85029221,-25.14258766,-2.320251703
692,5.239135742,-1.618910313,8.734251976,-26.05957031,-22.56143761,-1.598917961
693,4.867241383,-1.939632773,8.486688614,-19.15217972,-20.21282959,-4.105458736
694,4.75147295,-1.747810006,8.193466187,-12.38961601,-16.67352867,-9.424658775
695,5.086006165,-1.403375268,8.021196365,-10.62685013,-13.50043297,-9.499915123
696,5.399071693,-1.442061424,7.757279873,-3.250368357,-9.60022068,-8.66782856
697,5.48960638,-1.275780439,7.711001396,6.259229183,-8.064381599,-8.984864235
698,5.36368227,-0.639078975,7.874585152,12.73730373,-9.036425591,-8.544482231
699,5.527656078,-0.990443408,7.91930294,18.4641571,-10.52034569,-8.758584976
700,5.515693188,-0.929444611,8.32057476,15.00659657,-10.06638145,-8.079883575
701,5.936137676,-0.404052645,8.103505135,11.37241459,-9.591145515,-5.189752579
702,5.619861603,-0.982748032,8.239804268,22.29553604,-9.383922577,-2.915960312
703,5.878492832,-1.362593412,8.416632652,44.35318756,-16.03820992,-5.8087883
704,6.375518322,-1.624166012,8.665902138,41.21579742,-22.31427002,-9.570198059
705,5.903671741,-1.178429842,8.197371483,27.74659538,-31.123209,-13.50580788
706,5.829748631,-0.22081393,7.764235497,24.6406002,-31.05641365,-13.78874493
707,6.382753849,0.703119516,6.960767269,18.21273422,-31.59208488,-7.742999554
708,6.705523014,1.094298363,7.191754341,9.025018692,-36.74120331,-0.928272784
709,6.075021267,1.473585963,7.174337864,19.33522415,-38.34433365,2.176677465
710,5.289512157,0.822549522,6.437844753,21.91079903,-38.34301758,6.462609291
711,5.713441849,-0.09035255,7.21398592,24.12929726,-33.90874863,9.490521431
712,5.269419193,-0.86063087,8.238271713,10.03188515,-13.15661812,7.982661724
713,4.739387989,-0.105746105,6.333203793,0.787635326,-2.142271996,4.460470676
714,4.332883835,-0.525068998,6.078131676,-0.311693877,-4.872087955,10.68402767
715,3.088718176,-1.107805133,6.381923199,13.13970947,-11.03077698,7.775763035
716,2.943255663,-1.604093194,5.60206604,20.89322472,-15.47766685,8.572587013
717,2.241858721,-1.364861369,5.714928627,23.89625359,-25.75217819,9.702552795
718,1.910892606,-0.084339961,6.248774052,20.77021027,-35.06542969,5.81055069
719,2.152995348,-0.090291008,6.609937191,17.5652504,-31.2058754,4.783712387
720,2.520178556,0.438669294,6.736110687,13.04792023,-34.29301834,2.62556386
721,2.152790546,1.2520926,6.82490778,5.867011547,-29.48098183,6.119745731
722,2.55082798,1.516060591,6.883522034,-6.928451061,-14.93171406,12.40209198
723,3.028739214,1.340111017,6.652676105,-18.20228004,-1.815508962,16.45672417
724,4.054434776,-0.292756319,6.911419392,-27.64834404,0.735759199,12.53879547
725,3.896595955,-0.829182684,6.548176765,-33.11748886,3.51894021,16.98321724
726,3.934156179,-0.935711443,6.500884533,-35.00854492,17.95976639,23.49373627
727,3.706357718,-1.019365907,6.935326576,-36.67448044,24.45527458,18.74339104
728,3.275509119,-1.965962768,7.311066151,-38.45409393,24.18083382,15.82811832
729,3.854473114,-1.48221457,7.902371407,-29.03945541,31.24233818,15.71499825
730,4.002164364,-0.976765752,7.965227127,-24.62010956,34.78514481,18.37527275
731,3.277076483,-1.451333523,7.638648987,-12.33995438,38.59915924,20.35928917
732,4.08823967,-1.661806345,7.789934635,-5.679174423,43.67164612,18.19085312
733,3.47485137,-0.986400247,7.178487301,-3.582608461,56.84445953,18.31941414
734,5.207956314,-0.740566552,7.981558323,11.02958679,48.90994644,19.1588726
735,5.484415531,-0.839008749,7.491891861,12.6649704,56.28935623,18.04200554
736,5.509553432,-0.859181702,8.1236763,9.264584541,57.36743546,17.27832794
737,5.160070419,-0.820321083,8.907230377,9.321503639,60.87713623,20.8741188
738,4.854011059,-1.081093788,9.353430748,14.43434143,56.29204178,22.52237892
739,5.322493553,-0.887901843,9.419088364,24.44851303,48.43679428,16.70680809
740,5.434602261,-0.343150198,9.584700584,30.93986893,39.47801971,10.73865318
741,5.729701519,-0.060279299,9.756606102,27.17282486,33.97877121,11.12170792
742,6.617141247,-0.220941499,8.8799963,21.64458656,26.81868172,9.139093399
743,8.340654373,-0.610640049,7.724289894,20.53628731,26.21272659,4.785707474
744,10.56592464,-0.709804952,9.883696556,25.52916527,28.74471474,4.239071369
745,13.44076633,1.245635748,11.46078968,32.54767227,23.32727623,6.415230274
746,14.8857832,1.347322941,9.612774849,21.8557415,21.98503494,1.523685455
747,14.45215034,-1.530817509,7.044414997,20.1516819,28.90560341,-7.253139496
748,13.09730625,-3.04297328,4.655815601,32.89029694,65.52117157,-6.830704212
749,11.07963467,-1.813099146,1.060496092,30.71092224,129.4608459,-11.21610928
750,7.859409332,-1.350436091,-0.100077018,-3.356577873,162.9719696,-8.421926498
751,5.380067825,-2.028075457,0.936433196,7.904485703,105.1650772,-6.437659264
752,4.966118336,0.177216202,3.368733644,-10.4539156,52.47721863,-4.044375896
753,4.442925453,0.452925116,5.698570251,-15.36214066,30.53228188,-10.45064163
754,-0.094593063,-1.024085641,8.990339279,-27.50367165,31.32950783,-11.51971817
755,-4.039256096,-0.571446836,10.25524235,-5.193030834,27.70342445,-14.61721802
756,-1.376612902,0.675490081,9.144897461,9.343565941,12.46903515,-7.748296261
757,3.612801552,1.388987064,8.912348747,4.939481258,8.457796097,-3.469855785
758,4.768566132,1.189328909,10.16879177,9.779335976,5.193726063,-3.475798368
759,4.440559387,0.082169466,10.85399437,16.13606453,2.935070992,-7.616213322
760,4.22187233,-0.835094571,11.42341328,19.88663292,1.084039927,-6.912313938
761,3.116865158,-0.469150186,11.43568325,12.4039259,-0.6021294,-7.204396725
762,0.818087816,-1.161467433,11.00514221,12.29336739,-0.890669405,-6.027772903
763,1.200214982,-0.851282001,10.54115772,14.78909969,-8.160188675,-5.556398869
764,2.82971549,-0.072617739,9.922692299,16.46050072,-18.56474304,-7.338606358
765,2.581722021,0.826215744,9.577098846,23.21689034,-32.68445206,-5.475674152
766,1.665578604,0.771411479,9.860961914,21.869627,-47.37460709,0.30216229
767,1.480744481,0.110498935,9.9979105,23.89685631,-62.93450546,1.401440382
768,2.026459455,-0.246197164,9.651719093,31.77652359,-71.23068237,-4.280716419
769,3.402981043,0.393769175,9.793839455,33.32767105,-75.22841644,-10.08884239
770,4.111622334,1.021821737,9.741658211,24.41090393,-71.41133118,-10.13063049
771,4.444606781,1.050819397,9.677268028,17.01114655,-61.75011444,-6.311841965
772,4.689393997,0.546744406,9.907726288,10.37576103,-48.09311676,-1.575156212
773,5.243486404,0.10321942,9.4602108,8.598457336,-32.85261154,2.185329676
774,4.961855888,-0.384759933,9.737045288,10.77134991,-23.56498146,3.463683844
775,4.89370203,-0.503168166,9.996595383,19.1190052,-21.44935226,1.673519254
776,5.014576435,-0.448077619,10.02376461,30.11482048,-20.95002174,-1.743452072
777,4.843941212,0.132836953,9.882705688,38.96338654,-22.29701042,-5.830388069
778,4.904391766,0.971580744,9.436246872,36.16352463,-23.9110508,-7.225941658
779,4.76074791,1.457485676,9.235941887,28.9144516,-22.4257164,-5.810229778
780,5.074602127,1.421060205,9.514009476,22.00270081,-23.49702263,-4.170505524
781,5.525882721,1.17240572,9.535685539,18.97508621,-28.75929642,-3.5662117
782,5.394216537,1.044181466,9.216931343,16.93859863,-29.57250214,-3.71892786
783,5.547156334,0.981682181,8.949691772,13.85155964,-29.52215767,-3.660235167
784,5.596369743,0.908089101,8.599520683,8.587519646,-26.43341637,-3.257175684
785,5.387172699,1.094531059,8.621424675,6.070896149,-25.18831825,-3.317082882
786,5.869347572,1.142669916,8.6323843,-0.776297152,-26.74577904,-3.605803013
787,6.258921623,0.742599607,8.252127647,-2.787447929,-23.79595757,-1.8883636
788,6.401832104,0.942902386,8.151140213,-3.204794407,-21.71539307,3.993929148
789,6.600596428,0.765232921,7.866683006,-0.029864455,-21.70281601,4.05411911
790,5.948124886,1.328255892,8.478171349,1.007355928,-24.45131493,1.515039086
791,6.317826748,1.951101184,9.031857491,-10.02018547,-37.95498276,3.056789875
792,6.581384659,1.288716912,8.904805183,-18.96668243,-54.22954941,4.029828072
793,7.008200169,0.39842844,8.115625381,-21.99370956,-60.99090576,3.722048044
794,7.295922756,-0.299593031,7.468579769,-18.20306396,-59.1712265,0.73599726
795,7.934751987,-0.424897879,7.099672794,-11.4872303,-54.50333405,-1.359895587
796,7.520940781,-0.264739037,7.267777443,-19.14793587,-45.07619476,2.124661922
797,6.961815834,0.285699725,8.206421852,-45.60627365,-43.7947998,3.008196354
798,6.501039505,0.972026885,7.503180981,-52.71665192,-59.91957855,-0.749956667
799,6.532405853,1.315704584,6.683018684,-26.10791016,-79.7407074,-9.948900223
800,7.300326347,1.320784092,7.448633194,17.91963959,-79.83717346,-6.757098198
801,6.894069672,1.584383368,6.993527889,37.15973663,-34.60948181,-4.582859039
802,6.150249481,1.356338382,6.458054066,27.7074337,-18.60302353,0.910029233
803,5.837715149,1.132070184,7.282966614,-12.23841286,-21.14221382,0.909592092
804,5.236601353,0.624160826,6.714847088,-16.77887726,-37.93774796,-2.133115292
805,4.590466976,-0.628580511,5.399134159,-17.36287498,-34.39719009,-0.339510918
806,4.461144447,-1.195915222,5.532827377,-19.01616669,-33.00963211,0.466428816
807,3.703383684,-0.834189892,5.778676033,-19.4359436,-36.58102036,2.046447754
808,3.506472111,-0.527010858,5.689824581,-20.03063583,-38.65585709,4.844079018
809,3.643841743,-0.169975623,5.692668438,-23.25074005,-40.98258972,6.086515903
810,3.792426825,0.041298829,5.816191196,-24.77992821,-42.71472168,4.969379902
811,3.242092609,-0.423579127,6.167870998,-22.24418449,-38.6186409,4.919958591
812,3.042659283,-1.07658124,6.30691433,-14.43467808,-28.22246742,5.206997395
813,3.609835625,-1.439428926,6.166351318,-5.263108253,-16.60439873,5.211248875
814,4.076134682,-1.023083448,6.199735165,1.426813483,-6.930312157,2.304138184
815,4.4239645,-0.301231354,6.175447941,4.197313309,3.466762543,-1.731751561
816,4.826724052,0.203946963,6.272922039,-1.80595243,12.91617775,-0.816878974
817,4.674364567,0.081214711,6.674335957,-11.09669876,20.86168098,3.312170267
818,4.666890144,-0.263214767,6.803414822,-20.19198227,29.76848221,5.304767609
819,5.207512379,-0.275158882,6.801805496,-18.05004883,38.96142578,5.668678761
820,5.003301144,-0.089395449,7.1190238,-24.73052597,42.58408737,12.21194267
821,5.292386055,-0.340790927,7.241230965,-30.77949333,47.93642426,12.51194668
822,5.5398283,-0.764124036,6.93451643,-34.27632904,55.02380371,10.92156696
823,4.8101511,-1.030706167,6.589597702,-31.83938789,57.57382965,10.48667526
824,4.727295876,-1.152661085,6.775071621,-33.61751175,60.33729172,10.8447628
825,5.539672852,-1.398476958,6.957697392,-32.68257904,55.75269699,13.03630352
826,5.288527489,-1.571725368,5.800435066,-12.68155003,50.40361023,12.34140205
827,4.696777821,-1.153083324,6.48939085,3.395811319,53.52857208,5.346250534
828,5.497539997,0.148226947,8.606287003,16.4964447,67.81587982,3.273864985
829,6.324502468,0.66877991,9.609922409,15.27948189,80.13134003,7.76753521
830,6.742724895,1.561646938,8.645895958,20.76041603,80.36582947,9.166453362
831,6.60366869,1.533438087,8.421757698,14.10268593,77.56619263,10.37690353
832,6.562611103,0.298492551,8.027607918,11.50344467,68.73477936,4.624676704
833,8.613080025,0.308952659,8.301442146,12.30241776,61.83700943,3.721916437
834,11.69570827,-0.426830053,11.28713799,3.342065811,72.22605896,11.62355137
835,15.30009937,-0.06768705,13.44517899,37.81945419,81.50782776,2.278602839
836,17.86016846,-1.271653771,12.01485443,60.31331635,46.82419586,-15.85559654
837,17.86659622,-2.861421108,7.660826683,44.11203003,24.86318398,-24.01179886
838,14.62520504,-2.107122183,3.294513226,13.70732689,42.5382843,-16.39069557
839,9.844530106,-0.091646768,1.601037145,-16.027565,43.86866379,-16.07698631
840,8.278968811,1.166519642,2.560092211,-15.18691254,57.04740143,-25.30028534
841,9.690225601,0.290744215,1.72059536,-23.46798515,81.9720459,-27.12312317
842,8.986523628,1.092556715,1.890714645,-31.70610809,84.46521759,-19.25706482
843,3.894285202,-0.126559496,2.983193398,-8.881329536,47.86585617,-4.118723392
844,0.606594563,-1.510584474,5.503353596,-11.72317505,40.7657814,-5.31368351
845,-3.117662907,-2.563726902,8.079908371,-6.859366894,47.2214241,-7.278381824
846,-1.410480022,-1.43207252,8.350715637,-6.233713627,28.21988869,0.559402168
847,2.323969364,-1.268850803,9.757450104,-3.432259321,18.48200989,1.854073405
848,4.601791382,-0.467713147,10.32373333,7.052085876,16.10890007,0.539333582
849,5.819563866,-0.799413741,10.10498238,5.125393867,15.62115479,2.818481684
850,5.420687199,-0.372958839,9.886007309,12.10420036,15.34240437,3.86982131
851,3.156644821,-0.497055978,9.98500824,13.39058018,16.52746391,6.103330612
852,1.02359128,-0.543351054,10.26138973,19.06052017,14.37598419,6.952370644
853,0.867751837,-0.074257128,9.864016533,22.5634594,7.130392551,6.24960804
854,1.969887495,0.214155823,9.21769619,19.52195549,-0.86256665,7.279064178
855,2.166476488,-0.300117314,8.735799789,13.81351376,-8.648368835,7.642408848
856,1.998327017,-0.945066929,8.722082138,18.21257401,-17.22569466,4.208963871
857,1.88651669,-0.588923335,8.906201363,35.04353333,-29.06058311,-2.066498756
858,2.599054098,0.116966635,9.263407707,43.81719971,-38.68008041,-9.529461861
859,3.644066334,0.784399986,9.564405441,39.50607681,-41.57395172,-12.66865635
860,3.964777708,1.202287912,9.757472038,34.27030563,-39.05579758,-8.624685287
861,4.042767525,1.273638129,10.02609253,29.82328796,-33.63820267,-1.371300936
862,4.245963097,0.906539679,10.23524189,22.96672058,-23.63949776,2.98554945
863,4.477599621,0.654873431,10.67093658,18.85448074,-16.93545341,6.868759632
864,4.263349056,0.238028809,10.40416527,10.38975906,-14.30098248,7.976272106
865,3.862534285,-0.121816389,10.10999203,5.665552139,-12.92485523,5.657586575
866,3.871604919,-0.128218576,9.837312698,9.288194656,-16.16030121,0.590187728
867,4.518949509,0.541609287,10.04397392,12.30402184,-16.85798645,-4.981832027
868,4.540824413,1.394128323,9.725902557,10.51911736,-12.46438503,-9.97492981
869,4.04979372,1.999390602,9.465966225,1.637542725,-6.582199574,-11.68804455
870,4.411902905,1.924449086,9.151459694,-9.133867264,-11.28436184,-5.439398289
871,4.169378281,0.911095619,8.948628426,-14.16440487,-12.30559921,1.720413804
872,4.351347446,-0.064207509,8.670107841,-11.30825615,-18.97750664,3.501498938
873,4.550269604,-0.648937702,8.408323288,-1.812415242,-21.62716103,1.870063186
874,4.636903763,-0.661581159,8.739688873,9.426369667,-21.55620193,-2.079153299
875,4.841003418,0.03722503,8.936577797,15.70039368,-23.79548454,-5.315201283
876,5.494550705,0.953549981,8.645939827,10.41750717,-27.92793465,-6.568654537
877,5.135972977,0.627287924,8.275252342,5.338345528,-24.69557953,-7.265251637
878,5.409064293,0.563584566,8.257111549,9.824851036,-27.09980774,-8.043347359
879,5.894186974,1.866461992,8.522028923,7.03218317,-34.64685059,-5.989915371
880,6.097016811,2.265449524,8.59214592,-9.471155167,-43.44620132,-2.266150713
881,6.257678032,0.95788759,8.314610481,-23.41221619,-49.51876068,3.263444901
882,6.802338123,-0.136944696,7.739501476,-29.68798447,-51.3536377,2.968030214
883,7.294268608,-0.662173629,7.586997509,-25.37238503,-49.57761002,-0.436214715
884,7.409313679,-0.534434438,7.689523697,-22.08017921,-52.49734879,-2.221465826
885,6.432657719,-0.080282703,7.496183872,-27.71638298,-50.9466095,0.057571631
886,6.411761761,0.18221046,7.10676384,-26.30305481,-53.0893364,-2.002630234
887,6.013037205,-0.383406401,6.943004608,-23.9201088,-74.5989151,-4.881982327
888,6.623512268,-0.361271918,7.720424175,-15.68183613,-82.6390152,-4.722465515
889,6.374400616,0.577827573,7.389672279,7.692082405,-47.98560333,2.251708031
890,6.615086555,0.944307625,6.961817265,35.47006226,-25.47639847,11.07755852
891,6.702011585,0.395470649,6.764774799,34.62115479,-13.0798769,15.36118126
892,5.839250088,0.466415942,6.662373066,14.35898399,-18.60626793,13.94702816
893,5.38872385,0.534699857,6.481462955,-5.285962582,-22.56803322,13.03646851
894,5.197628498,0.141333386,6.16211319,-9.64080143,-41.7509079,11.69055557
895,4.019090652,-0.179682896,6.853695393,-10.67644691,-50.3653183,6.435655117
896,3.219255924,0.495147735,7.210662842,-10.62367058,-46.66836929,2.291285753
897,3.424535036,0.523371518,7.13878727,-10.33351707,-39.30564117,1.305826187
898,3.550349236,0.239508435,6.994507313,-10.995718,-32.67202759,-0.279077142
899,3.514285088,-0.317593306,6.976504326,-12.32743168,-26.72794724,0.59806484
900,3.36110878,-0.57409507,6.96524334,-9.912142754,-18.11249733,2.899419785
901,3.541378021,-0.287864953,6.809576988,-4.714723587,-8.03255558,4.460280418
902,3.678312778,-0.058390252,6.899729252,-4.961782455,2.641687632,4.742454052
903,3.80292201,0.210911483,6.848246098,-13.94311237,16.0408268,0.18509683
904,3.936600447,0.307166338,7.038685322,-21.99388695,27.04910278,-1.536794066
905,4.324667454,-0.037861433,6.993318558,-28.01685905,40.90746689,-0.564867377
906,4.089410305,-0.593859255,7.095816135,-28.70529175,49.69060135,2.312577963
907,3.530225992,-1.19460845,7.367199421,-28.68123245,51.07435989,5.74294281
908,3.38353014,-0.975931466,7.054830074,-22.37718964,57.2101059,3.159143925
909,3.60598731,-0.7902264,7.781817436,-23.26642418,58.28211975,-0.580545485
910,3.615566015,-0.193647802,7.790477276,-23.3558979,56.093647,0.048619937
911,3.28056407,-0.479647309,8.205229759,-24.68982124,60.36299896,2.228139877
912,4.057887554,-0.506741762,7.994533062,-17.56138611,58.44746017,5.082747459
913,4.476613998,-1.00427711,7.782721519,-4.767315865,60.35935211,8.935676575
914,4.199483871,-0.945134223,8.427116394,-4.954286098,68.77739716,13.3173027
915,4.325815201,-0.312629789,8.951490402,-10.65646648,75.97676849,13.49057961
916,4.850099087,-0.125142217,9.772683144,-9.101909637,72.51663208,16.26249695
917,5.20690155,-0.893711865,10.50884533,-18.17006874,60.78616333,22.53990364
918,5.772213936,-1.330820084,9.712730408,-26.37768173,39.13668442,25.54914856
919,7.011666298,-2.009056568,8.624005318,-26.91684914,24.15872002,24.20669365
920,8.164571762,-3.009226084,8.622589111,-1.416731,22.62383842,8.776830673
921,10.32976151,-1.526737332,10.26433563,56.02502441,33.0534668,-18.38652611
922,12.81783104,2.174863577,11.19368458,85.7746582,39.40459824,-21.38600159
923,14.19666481,2.784653664,9.034108162,49.2918129,21.80032349,-1.337508798
924,15.79646301,0.021098349,7.874554157,33.01370621,-10.28463268,10.20099926
925,15.28472805,-2.059234381,5.673928261,32.90911102,-6.225011826,-0.854378998
926,11.34777641,-1.955330729,3.820727587,21.37150383,5.870375633,-15.67342281
927,8.689612389,-0.117219545,3.774916887,1.807294965,18.64393044,-22.88998604
928,9.61350441,0.208668068,3.596761465,-22.20306206,33.99521637,-13.85800648
929,9.887781143,-0.243949786,3.804696083,-29.6064415,47.94860458,-8.301016808
930,7.7520051,-0.035863481,4.28044939,-79.33474731,58.22302628,3.186463118
931,2.528092861,-1.279155254,4.0029459,-119.2932739,44.60639191,-1.722116947
932,-1.174393415,-3.240054131,4.859462738,-46.72379303,39.9352684,-11.70478249
933,-1.923473954,-2.760516167,7.59350729,2.839375257,44.28022003,-14.34378338
934,1.139351964,-1.8570894,8.864375114,32.44792557,39.6905899,-12.12004662
935,3.510501385,-0.448149294,9.476052284,80.2983017,33.17155838,-8.170427322
936,4.442879677,0.210768282,10.81743622,77.38274384,32.40711212,-4.862295151
937,5.210152149,-0.399064451,11.18359089,46.96654129,34.97472,-4.856841087
938,4.482130051,-1.43664968,10.83556461,30.74048615,33.88011169,-3.462100506
939,2.500393152,-1.701163769,10.45831203,8.639298439,27.75464058,4.107591629
940,1.552152991,-0.782844603,9.852246284,-15.08482265,17.15327644,7.962985516
941,1.326706529,-0.18540743,9.520636559,-27.15166855,9.817567825,11.13635731
942,1.979388595,-0.814813316,9.362484932,-35.73054504,4.701638699,13.574296
943,2.31010747,-1.687901616,9.39159584,-31.99583626,-0.286402434,13.28486919
944,2.634642839,-2.169270277,9.264479637,-14.14798069,-4.15891695,8.463666916
945,2.324088097,-2.107122183,9.072689056,7.411083221,-10.45909119,-0.816546082
946,2.188509703,-1.526136875,8.831690788,27.65465736,-16.35635948,-9.917506218
947,2.506201744,-0.829178095,8.734008789,39.50427246,-22.41002083,-13.45199871
948,2.970741272,-0.47362873,9.162795067,38.1498909,-25.32998657,-13.81803417
949,3.601189613,-0.412713408,9.677461624,34.27319717,-23.014534,-10.1330862
950,3.834229708,-0.146903291,10.13899803,28.01601219,-17.45311928,-4.935772419
951,3.783261061,-0.499813318,10.06416893,21.7863102,-11.3314991,-4.176588535
952,3.654322624,-0.316416919,10.26120377,13.95415211,-7.066960335,-4.652039051
953,3.180425167,0.370472491,10.09207058,11.68400288,-6.565832138,-4.407538414
954,3.519614697,0.505396426,9.639578819,11.40536499,-10.15524006,-5.971964836
955,3.205904007,0.407198071,9.70606041,8.400339127,-15.38470459,-2.999557257
956,3.160933495,-0.074535042,9.252238274,9.016863823,-25.03870201,-0.217247427
957,3.594531775,-0.319257855,8.874613762,11.7985096,-28.08513451,-2.230732441
958,3.883791208,0.827887893,8.981535912,16.02999496,-28.8477478,-3.851780653
959,3.867785931,0.762113094,8.957352638,12.38985634,-27.43994713,-2.859782457
960,4.159834385,0.639565647,8.833128929,11.02194977,-25.64802742,-3.6920681
961,4.373957634,0.805713654,8.630515099,7.992673874,-24.41419983,-2.710406542
962,4.482691288,0.502019227,8.896949768,1.240035534,-26.97656441,-1.26250422
963,5.042686462,0.018297063,9.389956474,-4.988024712,-28.48055267,-3.936684608
964,5.333389759,-0.082582086,9.914731026,-9.538194656,-24.67946053,-4.20190239
965,5.403100967,0.27748248,10.22159481,-17.65160751,-27.21373749,-1.495403171
966,5.201488972,1.375645876,9.846075058,-28.00444031,-40.13664627,-0.806947649
967,4.804543495,2.042632341,9.428115845,-44.75582886,-57.87873077,0.562164426
968,4.896267891,1.505844355,8.323097229,-57.25580978,-69.07313538,-0.411108345
969,5.95691824,0.144088164,6.909214497,-58.09502029,-74.20896149,-1.038870811
970,6.98668766,-1.213891029,6.03819418,-64.8575592,-71.13214874,-3.856732607
971,7.658054829,-1.833447933,5.833397388,-52.18936157,-64.57797241,-9.337429047
972,7.232607841,-1.666786671,5.974645615,-19.38055229,-56.52432251,-12.86588955
973,6.756978989,-1.255940914,6.304886818,-14.8308506,-59.01792526,-11.04981327
974,6.834442616,-0.738524377,6.787797928,-0.079259157,-48.04988861,-8.682623863
975,6.716557026,-0.934150636,7.710811615,21.71754074,-26.29624939,-7.907761574
976,5.775876999,-0.864108205,7.148876667,51.57398224,-1.272131085,-8.388560295
977,5.156019688,-1.297191978,6.779399872,39.22147751,-6.700409889,-4.480621338
978,5.39441824,-1.921703696,6.978523254,26.84835052,-13.84207058,-7.827318192
979,4.781045914,-1.270515919,7.57424593,20.88454247,-20.28683472,-9.565888405
980,3.501765966,0.088566549,8.083664894,18.01601601,-27.89749146,-8.286024094
981,3.728404999,0.186053395,8.075611115,14.81507969,-30.43602753,-5.291387558
982,3.748464823,-0.87949568,7.811713219,21.76169968,-30.23352242,-2.905454874
983,2.807538986,-1.551510692,7.52761364,35.82055283,-29.00908089,-2.254561663
984,2.679697514,-1.559724092,7.731864452,48.96374893,-29.53752136,-2.436756134
985,2.788948536,-0.47993958,7.708774567,58.85425949,-32.4136734,-5.758582592
986,2.823738098,0.295893162,7.978057861,56.29422379,-30.29145622,-8.756995201
987,2.962892771,0.847348571,7.662963867,53.61279678,-19.92624474,-5.280605316
988,2.552314281,0.511695862,7.82660532,46.73503113,-7.985192299,-1.127044439
989,2.413279295,-0.518891454,7.56248188,41.81742096,7.987211227,-1.107359171
990,3.119155169,-1.034526825,7.007603168,29.42840576,18.88803291,-5.455554485
991,4.267430305,-1.265771031,7.213724613,20.0990181,22.84623337,-9.641064644
992,3.607132196,-1.497071981,7.754011154,3.050019503,35.71484375,-6.564348221
993,3.136820078,-0.452833295,7.945331573,-21.07265472,49.44675446,-1.541900396
994,3.131462097,0.417046338,7.802914619,-41.85267639,63.79507446,-5.226686001
995,3.166101933,0.27156359,8.834803581,-52.91346741,77.544487,-7.17110014
996,2.933296204,-0.298304141,9.268086433,-55.29296494,90.16603851,-5.476967335
997,3.393034458,0.62319392,9.497324944,-55.8445549,96.34488678,-5.51033926
998,3.241702318,0.844084918,9.938977242,-51.17599106,101.5240479,-3.03528142
999,3.276906252,0.763655365,9.395381927,-43.15557861,108.9235229,-1.665431142
1000,4.833956718,0.262092888,10.06785011,-23.96660614,108.9442749,-2.947343588
1001,5.734139442,-0.197166249,10.62921429,-9.002303123,102.5026398,-3.409395456
1002,5.529962063,-1.741417885,10.20528793,2.149695635,101.6065063,-10.62085247
1003,6.894000053,-2.32015729,9.439044952,2.940678596,99.07537079,-14.31421375
1004,9.603775978,-1.020996094,9.692703247,8.890198708,86.71134949,-10.66349697
1005,10.98806381,3.044603825,9.546433449,39.60432816,57.88399506,-11.69537735
1006,11.85202599,5.43928194,11.04801559,23.75841331,31.28159142,-15.87642097
1007,12.68253326,3.287645102,10.64354897,-15.68926048,20.86148834,-17.53784943
1008,13.02276802,0.747692645,10.82488155,-15.63390541,14.65245628,-7.671401501
1009,12.16213989,0.588115692,10.26624107,12.97097492,12.02787495,10.12601471
1010,9.590845108,-0.704004526,8.705271721,19.69036484,33.02734375,9.56308651
1011,8.259627342,-1.346699715,6.068161011,15.87013435,36.7513504,1.987614274
1012,9.058300972,-0.394630671,3.620127439,1.571905375,40.25831985,5.517295837
1013,10.23744392,0.897108078,3.086955309,-20.08896255,34.61657715,-6.382350445
1014,8.389900208,1.641043782,4.212344646,-35.073349,24.18919373,-19.2245388
1015,0.632183075,1.133388281,1.547846913,-53.06327057,10.72715759,-12.40879631
1016,-7.600669861,-2.450004578,1.334195971,3.441572189,-6.15760088,1.711408734
1017,-8.535933495,-4.941263676,5.692677021,44.76552963,0.166182742,-0.54910177
1018,-2.760070562,-4.863681316,10.07070255,42.72938919,4.643262863,-12.81583881
1019,7.780246258,-0.18221657,10.53160191,91.33802032,14.94676781,-24.730896
1020,8.630307198,6.047701359,11.60155678,115.9699631,18.57920837,-14.41211796
1021,5.434534073,3.943082333,11.70983982,48.19403839,15.77207851,5.509078979
1022,0.701488674,0.489478499,11.40496445,10.61445999,13.2908535,20.02438354
1023,-2.569375038,-1.339735389,10.11770248,-8.146312714,-7.646916866,20.4487133
1024,-1.960235953,-0.56246829,9.418478966,-8.498021126,-36.73574448,12.84040451
1025,1.325965047,0.873370945,9.373209953,-2.886779547,-59.21202469,8.806223869
1026,3.397073984,0.922206998,9.982138634,5.791220188,-71.04689026,9.361131668
1027,3.464675903,0.697986484,9.977590561,19.46004486,-71.7952652,4.343338966
1028,4.021962643,1.175549269,9.534110069,35.88924789,-61.44844818,-8.481516838
1029,4.387974739,1.809653997,9.089248657,35.54314041,-47.67642212,-19.25858307
1030,3.709627628,2.249931574,8.80650425,23.29927063,-33.11520767,-18.18009758
1031,3.240928411,2.894237518,9.005789757,14.01434803,-28.90419579,-12.63554001
1032,2.801083565,2.447894573,9.212247849,-3.09450984,-28.28216171,-6.371292591
1033,2.675389767,1.552586913,9.127819061,-13.93055439,-28.83890343,-0.176267251
1034,3.377611876,0.679011166,9.429772377,-15.0980835,-26.19836998,4.258566856
1035,3.980149984,0.488734841,9.899001122,-12.16883183,-23.91607666,4.313746929
1036,4.404191017,0.407705486,9.632448196,-11.02733326,-24.36776733,4.070540905
1037,4.789998055,0.003999024,9.086556435,-6.634636879,-23.21575546,2.48756814
1038,4.023905277,0.132569775,8.748958588,2.606587887,-17.73236847,-1.182373047
1039,3.452479601,1.317955017,9.141610146,5.440880299,-16.42974663,-2.70241189
1040,3.989360332,2.449564934,9.234960556,-7.735235214,-15.89003372,-0.719768941
1041,4.596015453,1.850553036,9.100017548,-25.03303528,-16.19005775,4.266211987
1042,4.718949795,1.175131917,9.407585144,-30.36381531,-13.95474052,8.92706871
1043,5.017958164,0.581366658,9.054629326,-34.02696991,-12.7832489,13.86459064
1044,4.567153931,-0.306015968,8.92602253,-27.4147625,-17.52327347,13.37511826
1045,4.826151371,0.038752586,8.476341248,-13.5285759,-23.00459671,8.014242172
1046,5.487338066,0.852500439,8.379380226,-8.658981323,-22.79642677,4.550957203
1047,5.310836315,1.016248345,8.446516037,-14.74418736,-20.70363808,2.356751442
1048,5.033289433,0.757535815,8.47795105,-36.88007355,-21.74365044,6.376304626
1049,5.033894539,0.120914422,7.695307732,-73.30247498,-19.04256248,9.585295677
1050,5.292580128,0.213312998,6.259560108,-72.51828766,-29.09037971,3.93801856
1051,5.503043175,0.010278404,6.090229034,-63.30832672,-32.08308029,0.895826519
1052,5.796962261,0.54810679,6.041055679,-35.27526474,-34.71621323,4.45341444
1053,6.104620457,0.561860621,6.795655727,-25.37720871,-22.81579781,5.157579899
1054,6.205359936,-0.302309066,6.907100201,-6.903532028,-4.208372116,2.414772034
1055,6.608307838,-1.0703969,7.292005062,26.28083229,-8.667284012,-1.985988259
1056,6.146094799,-1.713923335,8.074114799,34.96166229,-12.52686024,-3.863310099
1057,5.692554951,-0.972161531,9.175322533,39.53302765,-20.72654915,-6.988309383
1058,5.903287888,-0.051491283,9.451760292,34.52425385,-40.9589386,-11.43174553
1059,5.320009708,0.27927959,9.758374214,36.72171402,-61.3012352,-11.19680977
1060,5.536369324,0.28897211,9.22992897,40.27537155,-75.22377777,-8.974064827
1061,5.33435154,-0.17124483,8.544308662,40.26763535,-81.01799011,-5.009489536
1062,4.995948792,-0.581006348,8.527667046,35.88553619,-84.70412445,-3.716225624
1063,5.235525608,-0.03264486,8.193297386,32.02583694,-83.1346817,-1.571568966
1064,4.966199398,0.339538664,8.03405571,24.99640656,-82.60097504,0.906143486
1065,4.632273197,-0.28708756,7.61199379,30.16836929,-76.94904327,4.675614834
1066,4.487925529,-0.418853462,7.523383141,36.79101181,-61.41065598,7.30060339
1067,4.313094616,-0.274874747,7.318026543,33.92119217,-47.03010559,4.853991508
1068,2.991627455,-0.024933396,7.156157017,29.16644096,-35.6661911,-1.570646405
1069,2.678073883,1.211286306,7.354953766,19.78995514,-25.89899826,-9.152837753
1070,3.461247683,1.92370379,7.410225868,13.56991005,-21.92709541,-12.93666649
1071,4.322520256,1.890803337,7.712182522,4.968803883,-19.06216431,-14.66294289
1072,3.884983778,1.399891496,7.835813522,-7.985947132,-7.15831089,-15.21798229
1073,3.561160564,0.476662248,7.826920033,-23.95810699,10.21883392,-8.396274567
1074,3.074944496,-0.198848605,7.584648609,-36.72019196,28.97603607,-6.128412247
1075,3.59623909,-0.598873734,7.132724762,-42.60932541,42.94878006,-7.131174564
1076,4.227453709,-0.741034031,7.021390915,-40.23832321,50.15939331,-6.651818752
1077,3.748712063,-0.666347682,6.868115425,-43.60443878,61.56642532,-10.69056225
1078,3.283951521,0.465087593,7.177663326,-48.52813721,71.621521,-8.728822708
1079,2.668299675,0.789308488,7.652597427,-51.82811356,77.48896027,-3.709665298
1080,3.511041403,-0.078649573,8.43943882,-57.06651306,79.48204041,1.144612551
1081,3.301362753,-0.430860043,9.090521812,-60.27453995,84.31082916,5.818600178
1082,3.328257561,-0.569668651,9.241832733,-48.63927841,93.66373444,7.192783356
1083,4.672589779,-1.201256037,8.984918594,-41.9798851,93.65319824,4.740850449
1084,5.381281376,-0.99867636,8.639595985,-39.70769501,86.00733948,1.404977798
1085,5.637298107,-0.655957103,8.98239994,-31.79890823,75.65044403,-3.16762352
1086,5.328372478,-0.658845007,9.848649025,-21.06180573,69.17308807,-7.727380753
1087,5.62335968,-0.409898013,9.550971031,-8.524477005,51.62468338,-7.323857307
1088,6.296402454,-0.266673982,8.794266701,-1.34984374,26.37797737,-3.144568443
1089,6.922985077,0.35895896,8.006606102,10.05181026,12.00728989,-1.555268645
1090,8.171982765,1.963955402,7.950783253,22.33361435,11.329669,3.498222351
1091,9.852323532,3.159333229,10.08567429,8.292394638,30.50842667,12.97314739
1092,12.5453167,1.285460591,10.39909077,-6.258023739,57.36964035,3.046621561
1093,15.31872559,-1.387481332,8.333022118,6.222985744,68.6479187,-7.677408695
1094,14.51172733,-2.830533743,7.369194984,23.32644463,72.69533539,-3.340425491
1095,11.49291134,-1.683786154,6.758712769,22.66043854,68.55194855,-2.398839712
1096,9.397209167,0.831197083,6.167525768,10.60516262,75.05147552,-9.443776131
1097,10.0287962,2.07274437,6.140022755,1.982815623,75.39446259,-12.51182938
1098,10.99319458,1.931523681,5.488713741,-13.94529629,70.4949646,-8.876873016
1099,8.842105865,-0.674034536,4.298176289,-46.42497635,61.20376205,-4.549613953
1100,3.891885042,-1.573044777,3.151749849,30.08744049,42.8272934,-14.69184113
1101,0.866650224,-1.473295808,5.90848732,106.2587128,14.19758129,-14.17180538
1102,-0.5871014,-1.575346112,5.172734261,60.45330811,-1.943517089,-10.39142704
1103,-1.222228408,-2.204098225,4.723448277,74.29206848,-3.713878632,-15.9040823
1104,-0.3715159,-2.667765856,7.222202778,100.9766617,-0.16516988,-27.98301506
1105,1.077408552,0.747597456,12.73014069,108.8015289,3.475004673,-18.40997124
1106,2.498844624,3.568102837,14.91951656,101.9224167,2.952323914,3.184422016
1107,4.629489899,2.318843365,14.42356777,74.96221161,-9.243225098,23.57177925
1108,4.967594147,1.562141895,10.89106464,57.94605637,-14.30775738,18.77098083
1109,1.520920873,1.769757867,9.419126511,52.52217484,-11.70951939,9.693887711
1110,0.007379602,1.866953611,8.661681175,35.52162933,-17.83332634,3.839268923
1111,1.989322782,1.708714724,8.593372345,16.72570229,-23.1491375,2.875379324
1112,2.762528896,1.886301398,9.182842255,5.356007099,-26.59766769,1.670598984
1113,1.981624722,1.580358744,9.817292213,4.567470551,-31.89934349,-1.271508336
1114,2.91539073,2.090739489,9.589162827,4.80681181,-33.82275391,3.917510033
1115,4.214379311,2.578495264,7.971655846,0.078010239,-35.51655197,8.105093002
1116,3.46006608,2.59647584,7.751372814,-8.833470345,-32.24759293,-3.626785278
1117,3.528274536,2.872329235,8.875734329,-18.54929924,-26.30064392,-8.926445007
1118,4.379996777,2.460017443,9.843418121,-19.39731407,-17.30347252,-4.595506191
1119,4.356343746,1.792222977,9.935913086,-15.27048302,-6.54206562,-0.578040659
1120,3.161072016,1.546959043,9.37733078,-15.1348505,-2.751024008,-0.805148661
1121,2.696717262,1.522758603,8.93008709,-21.57698441,-4.74664402,-2.55712533
1122,3.024091005,1.666006327,8.976721764,-27.79670906,-7.591357708,-2.388608456
1123,3.7134974,1.800089478,9.243451118,-27.92716408,-9.720702171,1.171381354
1124,4.098206043,2.115680218,9.932265282,-27.04532814,-16.31528473,5.769992352
1125,4.033231258,2.327506304,9.868332863,-28.26101685,-28.62971497,7.979754448
1126,4.378069401,2.087561369,9.244724274,-36.43930054,-30.8593998,10.42063236
1127,4.560818672,1.476138711,8.964307785,-33.53683853,-27.62799454,14.78129292
1128,5.102809906,0.72835505,8.982181549,-31.79051208,-21.13182068,16.79568672
1129,5.241185188,0.478412449,8.827115059,-31.92170525,-15.32689667,14.1547699
1130,4.374495983,0.787497759,8.875905037,-33.54923248,-18.39757538,9.716365814
1131,4.341404438,1.195647359,8.321030617,-44.4692421,-27.27523994,8.214104652
1132,4.478130341,0.223970369,9.034306526,-46.48295593,-37.7949295,8.222876549
1133,5.467224598,-0.58554852,9.306901932,-46.99459076,-44.55640411,7.59738493
1134,5.549123287,-0.770803392,9.717116356,-45.38108063,-51.13251114,8.821475029
1135,5.414784431,-0.474412024,9.141776085,-46.04537582,-55.59514999,6.837507248
1136,5.418262005,-0.137847304,8.483758926,-38.82585907,-65.78926849,1.596901298
1137,5.552181721,-0.502757251,7.979782581,-33.82816315,-68.34469604,-3.528734684
1138,6.351063728,-0.391999006,7.427550316,-8.105563164,-62.72940063,-9.336527824
1139,6.164956093,-0.264625341,8.002762794,19.02671242,-58.28636932,-12.60709
1140,6.121033192,-0.162826419,8.199204445,34.41395187,-50.38376617,-7.605152607
1141,6.224639416,-0.041257326,7.5521245,13.20363903,-42.94677353,-1.720225096
1142,5.919127464,-0.488896519,7.810998917,17.26100349,-50.92194748,-0.334902257
1143,5.758438587,-1.216353536,7.551595688,18.38295937,-57.10422134,2.436061144
1144,5.110898495,-0.924860954,7.651475906,18.77961159,-56.20677185,3.944206715
1145,4.253174305,0.013024865,7.361505508,26.78115082,-58.50625229,5.047561646
1146,4.00894928,0.498739362,7.55760479,32.68536758,-66.68438721,7.264883041
1147,3.701278925,0.71365267,7.445053101,28.20611191,-74.96520233,8.768240929
1148,3.406235695,0.946801245,7.736562729,17.87974739,-80.58309937,10.83346939
1149,3.532513618,1.36528194,7.630005836,9.705957413,-79.67845917,8.909435272
1150,3.265329599,1.292071462,7.600474358,4.9617033,-72.93467712,6.041491032
1151,3.53282547,0.747602046,8.270532608,-1.086096406,-63.31077957,2.13928628
1152,3.390260458,0.51076293,7.585970879,-2.806311846,-42.70738602,0.089753881
1153,3.600303888,0.094312318,6.803847313,1.163669586,-17.52719879,0.478990078
1154,4.253443718,-0.423489571,6.531352997,-4.22619772,-2.729955673,3.599730968
1155,4.008135319,-0.93920809,6.073902607,-5.191030025,7.323793411,2.644876719
1156,3.542269707,-0.909375012,6.381594658,-8.483092308,17.20642281,5.989275455
1157,3.532865047,-0.443977892,6.467479229,-5.381993294,32.91833115,8.740766525
1158,3.616279602,-0.677305698,6.52927351,-1.168947458,47.36407471,9.048559189
1159,3.615018845,-0.727054656,6.260746956,4.331644535,59.83699417,11.71789265
1160,3.552095652,-0.480755448,6.575057507,2.306433678,70.08842468,15.22242355
1161,3.170704126,-0.656496286,6.362091064,7.442190647,82.30556488,14.4762392
1162,4.156453609,-0.448488355,6.853946686,0.49426809,87.4826355,9.100803375
1163,4.938658714,0.350071162,7.281523228,-8.855322838,87.67269897,8.182824135
1164,4.484632969,0.366279781,7.847229004,-15.07833958,87.55442047,10.23479652
1165,4.386984348,-0.139319733,8.606479645,-16.30884552,83.78636932,6.925052643
1166,5.825259209,-0.618485272,8.174021721,-9.527828217,78.77981567,4.275782585
1167,6.533599377,0.184121162,8.439833641,-15.64206696,59.17348862,1.426876545
1168,6.501273632,0.967003822,8.509302139,-25.84409714,34.92512512,7.039299965
1169,6.19759798,0.981378675,8.519278526,-21.24860382,14.10867977,13.78859711
1170,6.651150227,1.185420036,7.084222317,-10.38355064,8.401438713,15.49298954
1171,9.21127224,1.008979797,8.3231287,-16.24934387,23.12293434,21.17738342
1172,12.62949085,-0.771298647,9.836314201,-29.141819,47.47225189,17.67923546
1173,16.62819099,-2.250799894,7.474792004,-14.84879875,74.0761261,1.574757934
1174,17.52492523,-2.698587656,4.864334583,-9.748385429,89.77304077,-2.148877859
1175,14.16131783,-1.352220058,6.258277416,0.890783608,99.96453857,-6.033950329
1176,10.84933853,0.871798217,8.005544662,-11.17738628,121.1163483,-17.08215714
1177,9.776002884,1.97165978,8.699531555,-17.60193634,120.9872513,-20.68815231
1178,9.655385017,0.808616519,7.364929199,-26.76384354,114.1587296,-7.872355938
1179,6.542071342,-1.0770123,5.948023319,-66.2127533,92.2864151,4.267814636
1180,3.327888489,-1.242181778,2.789505959,-69.69205475,32.32253647,5.727260113
1181,1.221591115,-1.895064592,4.04879427,-28.91443825,8.662697792,-1.41126442
1182,-2.02867198,-1.670123458,6.316390991,-6.06876421,3.221867323,5.760892868
1183,-1.788044453,-2.372042656,7.159705162,14.06298065,4.620131493,6.022262096
1184,2.218786716,-1.249483347,9.156449318,3.16609621,0.654897869,10.89108276
1185,3.066264868,-0.89046663,9.659844398,-7.386635303,3.993965864,17.87777138
1186,4.12970829,0.384192467,11.67451382,8.949216843,12.801157,18.30684662
1187,5.877189636,0.375522375,10.64719105,5.726936817,14.17868614,28.12623215
1188,4.654170513,-1.526169419,10.40425587,-2.582589626,15.5347681,29.29434776
1189,1.0930233,-3.713317394,10.88960934,0.955427766,22.05429268,24.18925858
1190,0.179345489,-3.651055813,10.96984196,5.24802351,22.67970085,15.45938587
1191,1.087283731,-2.673653841,10.39348888,11.67916203,18.19180489,6.803557873
1192,1.598880887,-1.569882512,9.444677353,11.11300468,6.990535259,1.951106071
1193,1.906087279,-0.736414194,8.958443642,12.32472897,-5.941829205,-0.50818181
1194,2.39481926,-0.395295829,8.994297028,21.79935074,-17.3085556,-0.306110978
1195,2.699233055,-0.233393073,9.029457092,31.4172287,-24.70391464,-0.355423033
1196,2.619992733,-0.125950247,8.888801575,29.48457527,-28.01616669,-4.882730961
1197,2.381661654,-0.076688819,9.138954163,25.42582321,-26.27518845,-10.01015854
1198,2.424524069,0.016755711,9.246518135,21.9256115,-17.89173317,-10.26074886
1199,3.047993898,-0.282351345,9.495296478,19.73986626,-9.478497505,-8.725879669
1200,3.732540369,-0.588371933,10.08151054,17.76027107,-0.342659891,-6.532052994
1201,3.489299297,-1.032944441,10.00621033,11.9244175,7.715991497,-2.175838709
1202,2.743774891,-1.847559571,9.847566605,6.618754864,12.18474388,2.145276308
1203,2.741617441,-2.323086023,9.695611954,2.485841751,12.25620842,0.752629578
1204,2.46463275,-1.566105604,9.683869362,1.954658866,5.116188049,-3.672790766
1205,2.820523024,-1.06245625,9.878159523,0.061528131,-7.825118065,-8.230015755
1206,2.960092783,-0.952258706,10.10187531,-1.033012509,-13.70449829,-11.90234947
1207,3.091625214,-0.825757205,9.570159912,-1.003852606,-11.94203854,-13.84033871
1208,3.122935772,-1.40173316,9.164816856,0.753570855,-7.825733662,-11.74737358
1209,3.52033329,-1.953532219,9.381114006,20.00056648,-2.461192846,-12.42528248
1210,3.530439615,-1.728536129,9.319940567,37.5508194,-0.527996004,-13.43355274
1211,3.298290491,-0.74065268,9.083270073,40.21619034,-4.996762753,-13.44315624
1212,3.005228519,-0.22431162,9.148741722,33.9373436,-11.00433254,-10.62188148
1213,2.80557847,-0.654112995,9.43105793,23.5927124,-13.79968834,-9.434323311
1214,3.563073874,-0.960759103,9.511211395,24.34908295,-15.44643021,-10.03647327
1215,4.122797489,-0.675937653,9.497136116,24.20763206,-15.35232925,-10.05041695
1216,3.932947636,-0.248276353,9.530217171,20.88091278,-19.02143097,-9.535240173
1217,3.809266567,-0.293247014,9.442379951,19.45928574,-23.92063141,-8.762187958
1218,4.058885098,-0.459573984,9.26518631,26.33893776,-26.06574631,-1.267360926
1219,4.315896988,-0.427719504,9.303708076,27.54989624,-25.62928581,5.145585537
1220,4.516564369,-0.520909429,8.95549202,13.9017868,-16.70730972,6.80425024
1221,4.317610741,0.977265239,8.879995346,-7.089735508,-20.80482101,2.846722126
1222,4.166130066,1.821105242,7.909152031,-20.25055504,-32.19928741,4.664192677
1223,4.71875906,1.677337646,7.475600243,-0.311734408,-44.77458572,6.298701286
1224,5.038071632,1.041233182,8.165164948,24.93077278,-46.68014526,6.560688019
1225,5.027182102,-0.194898069,8.644473076,40.64965057,-57.9789238,5.464316845
1226,4.819146633,-0.864119768,8.888075829,60.25518417,-79.81040955,1.122612
1227,4.887927532,-1.135225177,9.129541397,50.43761063,-95.98918152,-0.94132483
1228,5.167490005,-0.109407857,9.52782917,45.21963882,-106.0209961,-2.130922794
1229,5.150362492,1.197604299,9.253863335,32.31558228,-113.7869644,1.274326682
1230,5.088603973,2.527561426,8.288482666,28.62765503,-121.2307205,11.63174438
1231,5.076019287,2.016774416,8.623321533,33.95169067,-116.1973648,23.39814758
1232,4.768452168,0.960556388,8.348168373,36.4956665,-103.8071899,24.1670723
1233,4.686788559,0.45104748,8.13720417,26.75908661,-84.46769714,18.05064583
1234,4.494755268,0.870249271,7.991065025,-1.569129825,-67.41897583,6.874048233
1235,4.410480499,1.597301126,7.438565254,-25.52627754,-62.92973709,-3.269949913
1236,3.912871838,2.044088364,7.531980038,-41.00642014,-61.4525032,-7.341049194
1237,3.358384132,1.728728175,7.676846027,-51.40756989,-58.37062073,-4.855670452
1238,3.481922865,1.128238916,7.281112194,-60.76898575,-54.94626236,-2.913116217
1239,3.786840439,0.176748544,6.7321558,-66.22425842,-47.64983368,-2.01170063
1240,3.914274216,-0.200784981,6.70934248,-63.65435028,-38.75668716,1.853210688
1241,3.897701502,0.165733755,7.071838856,-63.42110062,-30.24074173,5.046590328
1242,3.558523655,-0.156722575,6.658247948,-65.24679565,-15.10547256,8.154338837
1243,3.434250355,-0.723351717,6.041890621,-65.10058594,3.610299826,7.286737919
1244,3.008990526,-1.101842999,6.213717461,-63.25954056,21.48547554,2.654593468
1245,3.164952517,-1.67029345,6.078343868,-57.88825226,40.24995422,-7.654734612
1246,4.341291428,-1.262241006,6.117251396,-43.21508026,49.29172897,-8.667113304
1247,3.883131266,-0.359703153,6.524748802,-25.8776989,53.69478607,7.002620697
1248,3.531153202,-0.544826746,6.939073563,-14.2005558,53.11980438,18.76871872
1249,3.547004223,-0.892503381,7.016815186,-11.93023777,61.18206406,24.53466988
1250,4.206092358,-2.020241499,6.989058971,-19.46702194,69.58940887,26.68340302
1251,4.61766243,-2.304893017,7.015271187,-17.11050034,74.67492676,22.43366241
1252,4.841832638,-1.978584528,7.044732094,-4.982736111,79.63455963,19.74522972
1253,5.011954784,-2.18338418,7.008372784,7.64950037,82.42649078,22.03477097
1254,4.871250153,-2.2009902,8.233610153,20.0975399,85.58158875,25.71211433
1255,5.178565025,-1.58934474,8.260793686,28.39533234,69.38205719,25.60490799
1256,5.577991486,-1.170435548,8.663939476,30.56592751,43.18392944,23.94511604
1257,6.137177944,-0.96110034,9.237337112,38.52235031,21.51434708,21.86306763
1258,7.613705158,-0.944049895,8.623102188,34.46938324,10.55579662,12.77621174
1259,9.803052902,-0.51886797,9.972005844,28.7296505,27.28130722,-1.079568505
1260,12.09856892,0.0423383,11.97692871,18.5683918,49.31389236,-9.60045433
1261,14.84313679,-0.26664114,10.96601295,-14.74021244,35.81132507,-4.491364479
1262,15.58751011,-0.624062836,8.386777878,-17.61244011,2.218593836,-0.459095389
1263,13.29934788,-1.451880693,8.393211365,2.332672358,-11.10005474,-10.34783363
1264,12.09035969,-0.878362238,7.317329407,-9.459810257,-2.831898689,-19.2257576
1265,13.49294758,0.004572609,4.156683922,-23.61970901,31.99172783,-24.08879662
1266,13.73048592,0.696079016,2.585023403,-37.84386063,45.36050415,-11.8094883
1267,10.51234436,-0.538057566,1.666881204,-89.28314209,56.85068893,-0.039714057
1268,6.148039818,-0.386852413,0.280677617,-67.75188446,25.60814476,-17.21517944
1269,3.224900484,-0.771193743,2.012755632,-15.81528568,-2.290841103,-9.886182785
1270,-0.521627009,-1.717134714,4.047367573,-10.08205032,5.332472324,-8.076715469
1271,-0.656983376,-3.391029119,7.021192074,-9.918013573,12.72601986,1.588392138
1272,0.768687963,-4.490775108,9.245849609,-4.593512535,12.20996094,6.012322903
1273,3.583229303,-3.57467103,10.59020996,4.040425777,14.03676224,1.822440863
1274,6.302972317,-0.762265921,10.41738224,-3.19815731,13.35593605,3.065246582
1275,8.173465729,0.607986271,10.12408066,-24.51704216,10.27545261,9.304062843
1276,6.455458164,-1.398635626,9.79310894,-41.80695724,9.128331184,10.3118515
1277,4.00693655,-2.641624212,9.544456482,-36.8791008,11.42002678,4.538101196
1278,1.747645736,-2.590916634,9.397823334,-20.31491852,12.5341692,-1.4958359
1279,2.496465683,-2.30040741,9.114554405,-5.605700016,8.816862106,-4.411354065
1280,3.48314929,-3.002351999,8.768631935,18.96502304,3.52287221,-8.003211975
1281,3.268472195,-2.829065084,8.304787636,29.73735046,-2.055695057,-7.152806282
1282,3.48328495,-1.353420019,8.012343407,26.37263107,-7.946887493,-4.142827511
1283,4.259197235,-0.839178741,8.162311554,22.67661667,-8.137708664,-0.357336313
1284,4.956324577,-0.838322639,9.084209442,23.70560837,-0.065363742,3.085484743
1285,4.900981426,-0.497325152,9.368620872,21.86098862,8.931185722,5.877530575
1286,4.595253468,-0.438266933,9.350130081,15.63013363,13.99350357,10.7381115
1287,4.069053173,-1.383562088,9.422486305,6.621796608,11.2755537,16.93891716
1288,3.438252687,-2.551713228,9.45659256,4.11042881,8.165464401,19.7900238
1289,3.407846212,-2.76795578,9.222744942,7.561871529,5.629621506,16.78084183
1290,3.547798872,-2.028332949,9.433133125,9.510777473,2.456906319,10.76295662
1291,3.931820631,-1.206559062,9.424833298,11.79439259,-1.724145412,5.254172802
1292,3.946830034,-0.472513586,9.14312458,9.470574379,-5.644183159,2.87685132
1293,4.088523865,-0.594513953,8.6587677,4.717110634,-6.18224144,3.100206375
1294,4.39530611,-0.914291203,8.550227165,-0.284493089,-3.610174656,3.684252739
1295,4.378659248,-1.223490119,8.562015533,-7.665512085,-0.642123401,4.663081169
1296,4.208885193,-1.680679321,8.706289291,-14.30818748,4.175494671,2.349743366
1297,4.282086372,-2.155570745,8.761785507,-12.55872345,9.733505249,-1.822985411
1298,4.17869854,-2.123400688,8.522492409,-5.374559879,12.62053299,-4.243182182
1299,3.758959293,-1.968968272,8.716373444,2.347705841,8.139610291,-6.709466934
1300,4.133547306,-1.593883634,8.791279793,8.039772034,-0.255730093,-7.707402229
1301,4.680292606,-1.059327602,9.013853073,6.05674696,1.787376523,-7.835325241
1302,4.175450802,-0.868056953,9.279773712,2.261160612,9.182010651,-4.472440243
1303,4.359320164,-1.550274134,9.204526901,1.026525259,9.378393173,-0.871664405
1304,4.505371571,-2.618294716,9.550486565,10.81530762,4.184803486,0.209121391
1305,3.630656719,-3.037139893,9.130328178,28.89640236,-1.494723201,-0.758932173
1306,3.694265842,-2.567715645,8.494839668,27.07375908,-9.485229492,-2.736097336
1307,4.71927166,-1.388294697,8.140444756,13.46888351,-10.75268555,-7.932506561
1308,4.826077938,-1.418923855,7.863596439,-1.358165383,-8.349885941,-10.3929348
1309,4.244974136,-1.383670688,7.266132832,3.414503098,-13.68497086,-11.5932045
1310,4.425785542,-1.241728902,7.289265633,15.87719345,-19.38927269,-11.79430771
1311,4.755432606,-1.203629732,6.9731884,29.45419312,-22.44853783,-12.09544563
1312,4.899604797,-1.324732542,6.589553833,46.65798569,-27.72826004,-10.38986492
1313,5.165521622,-1.417029738,6.843747616,55.98706436,-31.45635414,-8.059819221
1314,5.26083231,-1.597709537,7.393407345,57.98922348,-36.45454407,-10.5651226
1315,5.462035656,-1.578698277,7.540400028,49.37183762,-42.3627739,-11.05206108
1316,5.641532421,-0.818490982,7.430092812,65.92294312,-48.85832214,-11.79838943
1317,5.303631783,-0.881605625,8.347210884,80.74998474,-50.22335052,-11.51430607
1318,5.075136662,-0.610935688,9.49474144,88.08943939,-66.61187744,-8.556355476
1319,4.627872467,-0.146156371,8.934914589,63.88843536,-67.07984161,-7.320625782
1320,5.463597298,0.903250515,7.320489407,65.78465271,-67.63808441,-6.169685841
1321,5.93352747,2.044437647,6.814737797,60.92346573,-79.14506531,-0.249041021
1322,5.941360474,3.227058172,6.78488636,58.46251297,-92.70140839,7.108793259
1323,5.627760887,2.019539356,7.313833714,50.60105896,-98.29892731,7.636455536
1324,5.40500164,1.027059317,7.379607677,47.99560165,-97.5121994,5.355960846
1325,5.164966583,1.226901174,7.858610153,40.52365112,-92.91921234,4.535796165
1326,5.236493587,1.913424253,8.343257904,29.30143929,-86.67175293,3.51291728
1327,5.156094074,1.939874411,8.865848541,19.43910027,-81.10453796,5.931053638
1328,4.767294407,1.416076422,8.532497406,13.88687229,-73.4927597,5.524160385
1329,3.790263891,0.437723994,7.930445671,9.696784019,-63.89073181,4.042851448
1330,3.090627193,0.399005264,7.566087246,5.152082443,-55.2366333,0.289881289
1331,3.91545558,0.708289862,7.042459965,5.649324417,-44.51976013,0.103776991
1332,4.689963341,0.945534885,6.729343891,5.940279961,-31.95159149,4.550465584
1333,4.507512093,0.985249698,6.51143074,-1.357589245,-14.47067261,2.790678263
1334,4.380189896,1.78630209,6.46150732,-15.93072987,2.480047941,0.789761961
1335,4.577656269,1.959353805,6.466924667,-32.79384613,17.9962616,0.936712205
1336,5.306363106,1.550816298,6.073796272,-33.24538422,46.76301575,2.559378624
1337,5.177177906,0.384805948,5.881752014,-21.24528122,65.99269104,1.717322111
1338,3.867484093,0.763243496,6.434201241,-9.347582817,75.29454041,-4.702535152
1339,3.702582598,1.067231417,7.34332943,-6.809515953,81.88976288,-5.240725994
1340,3.099550486,0.192456648,6.67377615,-15.54053688,85.33737183,-9.68981266
1341,4.066107273,0.056586541,6.3919034,-18.72205544,86.58270264,-14.87822533
1342,5.067835331,0.698103786,6.833937168,-15.11455822,80.81686401,-16.40954399
1343,4.762048721,0.890384972,7.102491379,-12.23150158,77.0066452,-14.29676342
1344,4.774486065,0.935935259,7.470096588,-5.073057652,77.18228912,-13.57523727
1345,5.183515072,0.75236994,8.699141502,-6.221634865,80.06430054,-8.361804008
1346,5.689468861,0.869972885,8.99269104,-7.303668022,77.2405777,-6.01406765
1347,5.5687747,0.948254287,8.420945168,-6.238174915,75.12234497,-0.574683666
1348,5.815921783,0.909778595,8.305566788,-14.66283131,64.51904297,4.720026016
1349,6.503261566,0.968194366,7.60255146,-31.24177742,53.7846489,8.419016838
1350,8.145590782,0.693953276,8.610292435,-50.02352142,49.97039413,2.499273539
1351,11.58103943,0.360994786,10.7170229,-41.78559875,49.39242554,-10.13412476
1352,14.68738174,1.467555165,10.49070263,-16.05838776,47.66764832,-17.12900925
1353,15.69143391,1.501106739,8.619474411,-27.07474518,27.94411469,-12.20256424
1354,14.38023376,0.392826319,9.004530907,-35.21363068,12.40533638,-8.490677834
1355,12.51181126,-0.08674667,8.50506115,-22.03529358,12.24289799,-12.22916317
1356,11.45730305,0.722436309,7.379051208,-6.473249435,9.237587929,-18.89608192
1357,10.50887585,1.734715343,6.232654095,-2.534405231,6.772370338,-16.56746674
1358,10.42743683,0.790061235,4.748173714,-13.94003868,18.95945358,-10.51490784
1359,9.459570885,-1.376693249,2.707519531,-7.796323776,35.56380081,-4.82248354
1360,6.128457069,-3.969769001,2.877945662,3.547320366,50.62740326,-2.283008337
1361,2.997911453,-1.734020114,-0.747609138,11.56749249,5.861208439,-7.19831419
1362,-2.14657712,-0.612350523,7.628069878,2.170109987,17.24790573,-13.96719074
1363,-2.9754076,0.810459137,8.056555748,-5.28553009,28.69127846,-1.031273007
1364,2.330903769,-1.689044237,8.972530365,-24.96426582,18.76927757,14.23506737
1365,6.856233597,-2.173734903,10.55834103,-12.34870434,19.59904099,10.6665802
1366,8.810785294,-0.454858601,11.61460114,-27.90737534,24.700243,19.96368408
1367,6.865918636,0.406505555,10.4228878,-33.75421524,29.29148483,19.98682594
1368,3.066057205,-0.261960477,9.322589874,-3.699612141,27.82756042,8.441670418
1369,0.44824782,0.351255476,8.799919128,24.53975868,19.24427414,-1.943856716
1370,0.727118611,0.928403854,8.476717949,42.87864304,3.510505676,-4.833621502
1371,2.649842024,0.809942603,8.702703476,42.54586029,-7.573711872,-3.192182779
1372,3.792078495,0.34090358,8.849667549,29.83233643,-12.67817211,1.156404972
1373,4.189086914,0.19105044,9.103913307,14.76961803,-9.156889915,3.564625502
1374,4.125882626,0.443613112,9.265679359,-3.999552965,-2.700437546,8.489659309
1375,3.843348265,-0.020112075,9.368530273,-18.33533859,4.042498112,11.88168812
1376,3.714076757,-0.351442575,9.095324516,-19.84130478,3.991306067,14.05626011
1377,3.507844448,0.914414942,8.827756882,-17.75566864,0.617977977,16.7335701
1378,3.112980366,1.25780046,8.829106331,-27.37260437,0.371616066,17.03242111
1379,2.86877799,0.420297772,9.431192398,-36.38864899,4.520583153,14.73153877
1380,3.47947669,-0.708613396,9.727869987,-36.23377991,10.06249619,10.98975849
1381,3.753174782,-1.665709734,9.875874519,-31.99702644,13.61263943,8.16583252
1382,3.193483829,-1.8121773,9.767567635,-24.23650551,10.32964897,6.5675807
1383,2.847055912,-1.057887912,9.167388916,-25.19855499,3.971411943,4.930238724
1384,2.765169144,-0.448217869,9.223372459,-32.88315201,-0.290500373,5.133643627
1385,3.253382444,-1.223155856,9.422605515,-37.48903656,-2.194942474,5.815309525
1386,3.885023355,-2.304191589,9.526731491,-21.93446541,-8.106755257,7.618659496
1387,4.533004284,-2.438494444,9.479958534,-4.500028133,-14.90790081,7.601901531
1388,4.560451031,-1.887313008,9.282505035,9.520318031,-9.654266357,7.088160038
1389,4.359746456,-1.358192563,9.451086998,16.2636528,-5.375676155,7.457932472
1390,4.360641003,-1.279260278,9.113801003,24.16624069,-1.778280616,4.588172436
1391,4.20792675,-1.22547698,8.847005844,15.9297142,6.707300663,1.546413064
1392,4.078815937,-0.762205243,9.118099213,4.744900227,6.897762775,0.152235493
1393,4.166937828,-0.458970666,9.149108887,12.60043812,7.391503811,-3.14433217
1394,4.206355572,-0.231357113,9.627954483,23.75808334,11.1628294,-3.998254538
1395,4.214112759,0.094239846,9.702924728,17.89296913,4.036905766,-2.182793856
1396,4.300727844,-0.158656165,9.652318001,12.38781261,-5.588963032,-2.166144133
1397,4.269579887,-0.254534751,9.14650631,10.29092026,-14.9917326,-2.096402168
1398,4.468371868,-0.615699887,8.41296196,12.49590683,-21.4085598,0.956489146
1399,4.447935104,-0.887070239,8.293723106,9.015925407,-21.34955978,4.832914352
1400,4.751129627,-1.407861471,9.079977989,-6.520418644,-23.29244614,6.516544819
1401,4.615329742,-2.276425362,9.173921585,-24.03371429,-32.02774048,-0.742682993
1402,4.885620117,-1.579249382,8.395511627,-26.95340729,-46.12166595,-9.84746933
1403,5.725991726,-0.982736886,8.092074394,-16.44013405,-64.04522705,-13.85263252
1404,6.055492401,-0.239259526,8.166761398,-0.681030869,-76.37388611,-16.93840408
1405,6.438009262,0.253835499,8.75043869,5.974205017,-82.58237457,-18.92648506
1406,6.242708206,-0.181877166,9.093828201,19.2410183,-85.09581757,-16.17585754
1407,6.565791607,-0.657921731,9.503183365,31.97985458,-92.86181641,-8.418126106
1408,6.231043339,-0.111378573,9.455795288,52.98223495,-106.1065674,-0.850242913
1409,5.958127499,-0.941409826,9.34996891,66.4070282,-106.585762,9.405311584
1410,5.902847767,-1.717941165,8.996078491,69.21891022,-99.29815674,4.620059013
1411,5.542717457,-1.615944386,7.725280762,47.03992081,-74.24074554,-9.283514023
1412,5.078332901,-0.348294109,7.011351585,26.04793358,-61.66770172,-17.17359161
1413,4.969201088,0.449825943,7.285472393,20.63054848,-67.84862518,-15.91150856
1414,3.942115307,0.609632671,7.672360897,19.54700851,-75.13121796,-9.716366768
1415,2.794008732,0.406274557,7.88465786,17.6588707,-75.94283295,-2.520305395
1416,3.062838793,0.303940952,7.28270483,10.70441914,-69.5329895,-2.502955198
1417,3.174472094,0.670994103,6.851781845,3.191752911,-63.58180237,-3.541544199
1418,3.547846079,1.145333052,6.107458115,-3.962466002,-53.50234985,-0.895313799
1419,4.055218697,1.069940329,5.983740807,-10.66857243,-43.38965225,2.699885607
1420,3.719545603,0.532756984,6.411466122,-20.73462486,-29.11275673,0.974023402
1421,3.733225822,0.523234308,6.544455051,-33.64903259,-8.237925529,2.261937618
1422,4.494934559,0.081417874,6.068571091,-47.79045868,11.35320282,5.710240364
1423,4.749615669,-1.881075978,5.956336498,-55.23440552,27.09435844,7.082846165
1424,4.024223804,-2.763426542,6.293574333,-50.62984467,37.36165619,3.612472057
1425,3.224275112,-0.933604181,6.626966476,-28.30142403,54.27041245,2.517358303
1426,3.569431067,1.097772121,7.108995438,-4.638489246,69.55529022,7.018404484
1427,4.069657803,0.751108646,7.037866116,-1.880875349,81.92414093,7.896001816
1428,3.795859575,-0.641397476,6.7007761,-9.090664864,95.24185181,11.37434959
1429,3.891129732,-1.314322352,6.607442379,-13.2288065,96.33985901,13.88640308
1430,4.700991631,-1.29964447,6.270400047,-11.91400433,94.47547913,10.6520834
1431,4.370419502,-1.002550244,6.4114151,0.259048283,91.97431946,10.67848206
1432,3.985678911,-0.595560908,6.787034512,11.04976177,92.60807037,14.08118343
1433,4.284263134,-0.385365725,7.521330833,20.7348175,91.53778076,17.57773399
1434,4.799007416,-0.792881429,8.46173954,28.30735207,92.3277359,17.77477264
1435,5.925877094,-0.739457786,9.663476944,25.17630005,80.78414154,17.83317757
1436,7.143859386,-0.947036624,10.08126259,18.46725273,63.45218658,15.28245258
1437,8.058854103,-1.822974682,9.655106544,14.7657032,54.26329803,7.379108429
1438,8.975653648,-1.119361997,9.737895012,25.66224098,56.3062706,-5.408053398
1439,10.79971218,0.568568468,12.84656715,24.59571838,75.51771545,-19.49419594
1440,12.03433418,2.052808762,13.60948849,11.13795853,103.5126343,-40.01509476
1441,13.44630432,1.829837322,9.46938324,25.38660049,81.65917206,-38.65317917
1442,13.4130621,-1.747157812,8.168449402,18.36389351,62.70282364,-13.28130245
1443,8.537117004,-1.891309261,7.727696419,29.3804512,63.73470306,7.570855141
1444,8.644055367,-1.621643782,5.585481644,24.08636093,67.72232056,4.714879036
1445,12.84324646,-0.346476883,4.599676609,11.05265808,64.36756134,-10.68182564
1446,13.25653172,0.535796225,3.89836812,-2.664119244,42.89481735,-18.59165382
1447,8.923219681,0.485193193,2.584073544,-2.429659367,31.67493057,-22.38954926
1448,3.383511782,2.529873848,1.91260469,7.067797661,17.18613243,-19.99667931
1449,-0.473296314,0.983592868,5.244432449,-1.919563055,-0.435050935,-4.502181053
1450,-5.134692669,-0.914156377,8.249992371,-5.089873314,9.647354126,6.641921043
1451,-4.932633877,-0.941704869,9.726331711,-2.483833075,17.76009369,7.587342262
1452,0.824476182,-1.286062956,10.01252365,4.940390587,7.437206745,1.058797359
1453,6.284770012,0.34367314,11.45250416,22.21349907,7.63761425,-2.818299055
1454,6.053656101,2.384511232,10.8944149,8.102151871,5.716314793,-1.655439138
1455,4.113587379,2.126204729,11.39395905,-12.39263821,7.385755062,8.240156174
1456,1.806828499,1.172434092,11.5973177,-31.15721321,11.91337013,11.31832027
1457,0.482478946,0.484516501,11.12353992,-31.10727119,12.65539837,9.631612778
1458,0.613984108,-0.082704067,10.01567364,-39.49835968,6.324062347,8.493408203
1459,1.903006077,-0.135965258,8.899968147,-45.82170868,-4.68659687,9.753422737
1460,2.388869047,-0.194416732,8.673941612,-40.79077911,-12.60429382,15.61074066
1461,2.036563396,-0.818251789,8.30185318,-41.61871719,-17.43774033,15.79876423
1462,1.828593493,-1.343395114,8.532279015,-32.53331757,-21.19115639,10.12577629
1463,2.477750301,-1.639909029,9.283511162,-28.05668831,-21.76520729,9.744115829
1464,2.726441383,-1.324403405,9.519451141,-31.33336067,-20.87155151,11.26884365
1465,3.173668623,-0.384859264,8.934228897,-28.75544548,-22.40926361,9.633181572
1466,2.869911432,0.03132011,8.187793732,-29.37024689,-21.28474045,7.666114807
1467,1.697717786,-2.469484091,9.096157074,-34.89352417,-19.01041412,14.17979622
1468,1.657789469,-3.635905981,9.383277893,-31.45455742,-23.30829811,13.04577255
1469,2.888636351,-3.317733526,9.821984291,-20.65473175,-27.10333252,6.429038525
1470,4.006486416,-2.700340509,10.06843853,-1.763144016,-25.81131172,0.762447059
1471,3.801193237,-0.654338419,10.18467903,6.576254845,-16.74214363,6.066394806
1472,3.600767136,0.407751381,9.724031448,-16.43979073,-12.76743317,13.33234119
1473,2.788730145,-0.45268485,9.34727478,-42.11984253,-14.25275898,21.64201546
1474,3.337827444,-2.592081785,8.9498806,-49.16403961,-19.98587418,26.05163193
1475,3.990265369,-4.199809551,8.53819561,-33.627491,-26.36725616,21.9528923
1476,3.462947369,-3.751556635,8.544756889,-3.469230413,-32.58566284,13.5026741
1477,3.328155994,-1.854497194,8.807738304,16.24535942,-35.47185516,6.173469067
1478,3.843781471,-0.545885384,9.256644249,12.73574352,-31.32457542,2.560940981
1479,4.245004654,-0.553722799,9.292456627,3.743093014,-25.0434742,1.244658232
1480,4.806130886,-1.421093702,9.114382744,1.738214374,-19.13543701,2.005163193
1481,4.366631985,-2.162707329,9.427084923,7.945842743,-14.57487106,4.024674892
1482,4.593998909,-2.310127974,8.837013245,4.853282452,-11.55358696,0.401255131
1483,4.312767506,-1.968665838,8.538807869,11.85363579,-15.56545353,-9.220791817
1484,4.4447999,-1.335300326,8.376942635,19.61245155,-17.22398949,-12.05702209
1485,4.744865894,-0.629194021,7.831083298,20.72119713,-18.73498344,-12.25173378
1486,5.083660126,-1.221847415,7.568339348,13.02593994,-20.63288498,-10.00410175
1487,5.152765274,-1.584235907,7.192416668,12.02314186,-20.94623947,-15.40505791
1488,5.579077721,-0.555551112,7.490221024,10.0148735,-19.75559998,-20.36527252
1489,5.004637718,0.526395082,7.07837534,-10.81622505,-14.1032238,-15.60834694
1490,5.072140217,1.061518788,6.088614464,8.555101395,-19.74213028,-11.49123859
1491,4.672248363,-0.65762049,8.587268829,31.77254868,-30.04450607,-7.14061451
1492,4.473341465,-2.455436468,9.129810333,30.68604851,-63.31640625,-11.41684151
1493,4.756714344,-2.669480085,8.918570518,2.989682198,-91.24874115,-16.40650177
1494,5.218707085,-0.633167863,9.057262421,14.86129093,-109.2609177,-24.95406342
1495,5.582625866,-0.277658492,8.930971146,20.0342083,-123.5552292,-25.8295002
1496,5.573363304,-1.40238595,8.900695801,22.96650696,-133.7838898,-24.27222061
1497,5.401599884,-2.128721476,8.752332687,24.71964455,-137.1250153,-24.73873138
1498,5.399532795,-2.286010504,8.420716286,32.4243927,-124.5619736,-23.02263069
1499,5.648172379,-1.444232821,7.837501049,38.88915253,-112.3205948,-21.54932976
1500,5.779764175,-1.141103625,7.955795288,50.24222946,-109.3428116,-15.86901951
1501,5.176409245,-1.189569831,8.167000771,53.40766144,-110.2655563,-12.81422043
1502,4.826713085,-1.560022473,8.108462334,54.90543747,-100.0357819,-9.867037773
1503,4.845726013,-1.854678392,7.027373314,58.69079971,-77.23755646,-7.442492485
1504,4.255653381,-1.207436562,6.805225372,60.01419449,-55.70817184,-7.543414593
1505,4.079291821,0.545696139,6.781177044,53.40512085,-40.21638489,-8.455464363
1506,3.969573498,1.684191585,6.519276142,45.16523361,-22.88859177,-8.872436523
1507,3.960425138,1.579726934,6.275518894,35.87229919,-4.261806965,-7.446901321
1508,3.644261122,1.123425961,6.468219757,43.33523178,20.81076622,-3.791697264
1509,3.954742908,0.732514799,6.542049408,37.87537766,34.13944626,-2.915635586
1510,4.623457909,0.25423187,6.229955196,6.614487171,42.34302902,-9.959970474
1511,4.165861607,-0.004879988,5.939152241,-6.077032566,53.66254044,-14.4021492
1512,4.404918671,0.816120863,6.332803726,-4.072966099,62.2665863,-16.35826492
1513,4.791642666,0.974256277,6.375637531,-3.418638945,77.23048401,-11.92017651
1514,5.038936615,0.05428841,5.782896519,-7.093914032,80.03244019,-7.068902016
1515,5.365260124,0.052459385,5.940329552,-14.82798958,79.83932495,-7.616921902
1516,5.562965393,0.887215972,6.132130623,-21.94434929,81.29965973,-7.660146236
1517,5.43704319,1.12231946,7.079070568,-23.03012466,78.22824097,-2.517505646
1518,5.16615057,0.490986347,7.643677235,-25.87371635,73.37794495,3.83053112
1519,4.878956795,0.072970115,8.187513351,-29.13191223,73.31524658,5.53733778
1520,5.741024017,0.034003817,8.630522728,-38.28956985,60.97167969,4.639793396
1521,6.73240757,0.377010643,9.486783981,-50.4574852,38.7765007,7.701983452
1522,8.26859951,0.318588078,8.838521957,-55.3801918,11.98360157,12.74065781
1523,10.86929417,0.726929665,7.934876442,-54.9297905,31.46630287,15.44865322
1524,12.03707886,0.22595875,8.255049706,-63.18644333,95.92305756,11.60624123
1525,16.46826553,1.013513327,8.356966972,-51.44021988,100.1802597,1.572133064
1526,18.65753174,-0.16882053,5.522740364,-23.09669876,75.54029083,-6.05726862
1527,13.81156445,-0.777912259,5.355027199,-0.273764342,54.87755585,-8.753158569
1528,10.22672939,-0.247495115,8.10403347,-5.739839554,47.51333237,-5.092729568
1529,10.78889084,-0.886043727,6.049760342,3.129202127,50.74483109,-1.663483024
1530,11.4229517,-1.125332355,3.643936634,14.59134007,52.05952835,0.273475975
1531,10.81386566,-0.237961978,3.325942516,12.49581432,55.28611755,0.336663514
1532,9.666320801,0.777079999,5.129541874,-15.39854717,51.46965408,-3.161855459
1533,5.764924049,0.268903106,4.991039276,-61.99198532,31.30202293,-0.20902878
1534,1.219467998,-0.831465542,4.783242226,-50.3750267,26.41358185,-1.273144841
1535,-4.252446651,-2.991885662,8.46572113,-38.61873245,40.59483337,-3.548858643
1536,-2.419497252,-2.279057026,8.049954414,-14.21980858,26.55740356,-2.056207418
1537,4.470771313,-2.292546272,9.806014061,5.41339159,25.68455887,-0.115167782
1538,7.132121086,-0.836115241,10.69040203,20.75953865,29.19462204,-7.759295464
1539,7.157046318,-0.403285623,11.85927296,30.36516953,33.5835228,-3.578510046
1540,6.148644924,-0.423564583,10.82102776,26.79054832,34.77313614,-5.305412769
1541,3.612248659,-1.196525812,10.53087807,18.35764122,36.52794647,-2.633922577
1542,0.487423271,-2.22168684,10.58846664,22.77926826,38.15401459,-5.951676846
1543,0.892403305,-2.267490149,10.10580063,21.40870857,28.25312042,-6.883546352
1544,2.583101988,-0.96437639,9.048547745,9.522530556,19.29430389,-5.268657207
1545,3.573249578,-0.532721698,8.662709236,2.608507395,10.27284241,0.023121875
1546,3.26004529,-1.208517909,8.155697823,-0.470927894,2.638011932,-0.003009492
1547,2.046919823,-1.366225958,8.057715416,7.783489704,3.394074202,-1.172908306
1548,2.363570213,-0.311017931,8.26248455,20.3024826,4.909315586,-4.830101967
1549,3.093705654,0.186454862,8.517168045,25.29490471,6.654548645,-6.579740524
1550,3.510992765,0.200643629,8.626634598,23.67944717,7.414937973,-4.183024406
1551,3.283485174,-0.360654384,8.777858734,11.45558834,7.887314796,-0.158901304
1552,2.508219004,-1.40656352,8.991444588,-0.553221643,7.559519291,-0.650716364
1553,1.780573726,-2.02509594,9.356665611,4.717340469,2.884047508,-3.962413073
1554,2.336290121,-1.664788365,9.692995071,15.96516418,-4.750546455,-6.681977749
1555,3.189489603,-0.984143615,9.978445053,14.882967,-6.209568977,-8.727005959
1556,3.609621525,-0.320552289,9.865684509,20.03740883,-1.050814152,-11.42795944
1557,3.406412601,0.26045087,10.05785084,22.75280762,3.571257353,-10.65475368
1558,3.376832008,0.324649632,9.874126434,19.53960991,6.280520439,-8.361780167
1559,3.45094347,0.189669281,9.809547424,16.72130775,8.856403351,-7.089542389
1560,2.762857914,0.403996319,9.545257568,12.12293434,12.14553738,-4.319381714
1561,2.645030737,0.253428489,9.306342125,10.5353117,10.34771252,-4.127963543
1562,2.889163733,0.095123649,8.801403046,4.818325996,19.96699524,-3.36849761
1563,2.368553877,0.168333128,8.438220978,-8.933566093,25.95722771,-0.988742352
1564,1.770127773,0.324075222,6.854232311,-19.68979263,7.570812225,-2.240025997
1565,2.663093805,0.121773586,8.273496628,-6.462840557,-1.39986217,-1.236453295
1566,2.983509064,0.770570338,9.885780334,-5.256546497,-1.433837652,0.169844255
1567,3.702486277,0.701435328,9.86048317,8.257523537,1.523712635,1.748131156
1568,3.992880344,0.049802806,9.517440796,26.46093941,0.71600467,0.733190835
1569,3.447387934,-0.151080549,9.217951775,19.89558411,-6.202099323,-0.216799036
1570,2.713508368,-0.028160479,8.837774277,1.143536806,-8.856438637,-0.261454463
1571,3.052264214,-0.58275491,9.354182243,1.749015927,-16.1080513,1.143607974
1572,3.488885641,-0.417720467,8.944439888,-2.590638399,-20.06196594,-2.262680054
1573,3.21993351,0.370106608,8.827726364,-0.077696294,-24.00197983,-5.085092068
1574,3.145963907,0.150656387,8.581033707,4.418029785,-26.73467636,-5.573685169
1575,3.99656558,-0.850332558,8.200795174,1.781248093,-32.12458038,-3.84218812
1576,4.017407894,-1.126053333,8.233430862,-3.623562574,-37.47318268,-5.119326115
1577,4.268552303,-0.505601466,8.455292702,-7.96362257,-42.15095901,-7.158596992
1578,4.670092583,-0.238832623,8.098909378,-9.074839592,-45.34009552,-6.379940987
1579,4.817220688,-0.316546768,8.058701515,-5.784305573,-48.18162155,-5.789017677
1580,5.199838161,-0.579951823,8.050190926,2.553435802,-49.95956039,-3.087215424
1581,5.451269627,0.54370749,8.125419617,8.097925186,-52.23903656,-0.788187325
1582,5.529364586,1.110138774,7.970162868,-0.584391356,-52.41194534,2.205338955
1583,5.250468731,0.772743404,8.155706406,7.021256924,-43.04728699,1.163259745
1584,5.203279972,-0.391416937,9.016640663,11.89086533,-47.06861877,2.969964266
1585,4.613043785,-0.763419211,10.23492241,34.9270401,-67.8127594,2.545973539
1586,4.475407124,-2.196060896,10.74217701,37.30367279,-98.9413147,-1.233671427
1587,4.966143131,-1.83834815,9.336920738,18.91196442,-112.1600266,-10.31446648
1588,5.113458157,-0.74274987,8.091278076,4.418025017,-99.9087677,-18.58899117
1589,5.820274353,0.634482324,7.859821796,8.805043221,-84.67201233,-19.23858452
1590,5.373593807,1.358315706,7.547776699,7.511706352,-79.36668396,-15.73757744
1591,4.376258373,0.727095068,7.806123257,8.851606369,-76.08999634,-5.805303097
1592,4.372390747,-0.18808189,7.609525681,8.458577156,-80.39739227,4.320775509
1593,4.112404346,-0.259639949,7.555065155,9.263651848,-86.13382721,10.88228989
1594,3.317058086,0.526431203,7.687393188,1.14800179,-81.96685791,12.32939339
1595,2.84949398,1.029410362,7.559261799,-11.09705925,-72.44786072,11.95220089
1596,3.204414606,1.456670523,7.580957413,-19.3822155,-62.84049988,11.54211521
1597,3.99569869,1.318722963,7.423137188,-27.06766891,-53.81857681,9.426224709
1598,4.721136093,0.907083929,7.206465244,-28.51022148,-39.32603455,8.703160286
1599,4.710689545,-0.031261645,7.370989323,-27.36275291,-25.40140152,10.47545147
1600,4.287923813,-0.556590259,7.219514847,-20.47161865,-7.942783356,9.93448925
1601,4.426932335,-1.367274642,6.934494019,-9.999001503,9.953174591,8.935452461
1602,4.895218849,-1.674874783,7.060027599,-5.910288811,21.65719223,5.061130047
1603,4.422240257,-1.059511185,7.270324707,-10.58795261,33.58572769,-0.857440054
1604,4.308704376,-0.480762959,7.182022572,-9.504221916,47.05366516,-3.123289824
1605,4.205219269,-0.70476836,6.850824356,-11.93936539,62.84615707,-3.128815413
1606,4.400330544,-1.064087272,6.648193836,-11.03436756,75.29891968,-2.210484982
1607,4.103816509,-1.285973907,6.727877617,-2.099997282,82.44689178,-0.657954872
1608,3.914802551,-0.796869218,6.878710747,10.65623188,89.63054657,0.471216738
1609,3.939182758,-0.502066433,6.872023106,17.25606346,93.61515808,4.003232956
1610,4.115435123,-0.032866076,7.095026016,16.87198067,91.05539703,10.91526985
1611,4.128311634,0.153786734,8.12498951,17.48958015,87.17948151,17.90322685
1612,4.34389782,-0.456699401,8.036373138,19.72976303,86.36398315,20.42793465
1613,4.238601685,-0.78793627,8.499985695,16.07420921,85.85346985,18.01236153
1614,5.300260544,-0.445301294,9.655038834,8.079524994,77.59251404,19.63496971
1615,6.340102673,-0.284014195,9.720844269,-11.92532825,55.09581375,23.75646973
1616,5.69966507,0.165949717,8.940703392,-21.97459793,28.43777275,27.77294922
1617,6.849606514,0.701343358,7.364490032,-19.61951637,15.4879818,27.69099617
1618,10.31400585,0.093212329,8.928965569,-22.41881371,33.03250122,16.46933556
1619,13.57846832,-2.569123983,11.32646179,-10.49248695,73.39311218,-10.23917389
1620,15.44261837,-1.641635895,10.84721851,29.18897438,54.28669739,-26.92347527
1621,16.18858528,0.571420848,8.666030884,25.49849129,27.45560837,-22.26010704
1622,12.63202858,1.314643621,8.32178688,8.92708683,28.19548607,-12.6486969
1623,9.104346275,0.960021555,9.134102821,3.091790676,38.62493896,-11.48603535
1624,9.870845795,-0.427948356,8.588985443,-1.375128388,39.49138641,-11.51398849
1625,11.54000473,-0.603824854,6.158881664,1.627605438,49.5935936,-6.798836708
1626,11.00364113,-0.194538936,4.218362808,-3.852259159,48.12082291,-7.337344646
1627,6.6039958,0.17833598,1.561116338,-52.53872299,43.68780518,-8.195279121
1628,3.370716333,0.067929372,0.947882891,-16.45204735,-13.38197422,-13.57163525
1629,-0.581990361,-2.091736078,4.644979477,21.07592392,5.562120438,-3.670971394
1630,-2.93016839,-1.685828686,7.668304443,35.81337738,25.27609062,-4.250604153
1631,-0.361875445,0.605069995,9.196410179,34.07196808,25.38152313,5.283108234
1632,2.962278843,0.905886829,10.76414299,24.78483772,28.05934715,5.600777149
1633,5.958649635,0.006027514,10.94826984,20.12686157,35.03584671,0.53007704
1634,7.099385262,-0.075465187,11.06948566,3.885338306,31.10121918,3.478005648
1635,4.786808014,-1.258451819,11.20501804,-15.64347935,27.1770134,6.558411121
1636,2.613962173,-2.042867661,10.64076614,-13.65200996,24.80464935,2.79444313
1637,0.559581995,-1.845510006,9.959254265,-6.519147396,21.48178673,2.255439043
1638,0.058091406,-0.313053608,9.184145927,-11.52551746,19.38487244,-2.868563652
1639,1.531612873,0.97893995,8.771184921,-4.078082085,10.01656246,-4.945263863
1640,2.737655878,0.391101837,8.844036102,6.542245388,0.490912229,-1.947128773
1641,2.540119886,-0.05095179,9.131580353,9.002056122,-7.972213268,-0.671847045
1642,2.329055071,-0.212629095,9.211549759,6.067608833,-14.77779961,0.205074668
1643,2.55257225,-0.593576968,9.53763485,-3.630923986,-17.03325653,-0.985680103
1644,3.229878187,-1.305236459,9.664191246,-12.50211716,-13.72652054,-2.446470022
1645,3.813486099,-1.608278036,9.363108635,-17.60621262,-11.99097824,-5.732836246
1646,3.38691473,-1.314684987,9.306318283,-22.3388195,-12.0631361,-5.305273056
1647,2.488070965,-0.822561145,9.446046829,-19.29425621,-9.643709183,-2.591830254
1648,2.409419775,-0.522251189,9.339319229,-15.27851391,-6.44948864,-1.249567986
1649,2.779742002,-0.433768839,9.417098045,-10.43328667,-5.378554344,-0.067591943
1650,3.094359875,-0.472850531,9.695703506,-8.036997795,-2.925239563,-1.116188884
1651,2.919111967,-0.698281348,9.780234337,-10.77630329,-0.257907152,-3.119794369
1652,2.93607831,-0.666816831,9.451299667,-13.78664684,1.538562298,-3.246040583
1653,2.759539843,-0.54387027,9.269788742,-14.4320755,-2.019767761,-1.276217699
1654,2.819417953,-0.360274732,9.238810539,-15.64078331,-6.677212715,2.249917984
1655,3.141517401,-0.454555094,9.212809563,-19.13720512,-8.882940292,4.900524139
1656,3.130607128,-1.072474599,9.066880226,-20.23515892,-11.6250124,4.458878517
1657,3.218338013,-1.601019382,8.678572655,-10.04884148,-9.950681686,2.117947578
1658,3.132231712,-1.689764738,8.865530968,2.801844597,-9.461820602,0.823595822
1659,3.164030552,-0.857223988,9.660992622,13.55487251,-6.924103737,2.142689466
1660,3.48846221,-0.1785786,10.07335949,4.663593292,-5.765970707,4.887025356
1661,3.826581717,-0.292738825,10.07331944,-8.751633644,-10.03384399,4.86388588
1662,3.461824417,-0.473403066,9.441756248,-16.85808563,-11.93963337,5.477303505
1663,3.218821526,-0.899855971,8.877979279,-17.9898777,-9.246562004,2.701118946
1664,3.702126026,-0.576577008,8.482041359,-2.964051247,-15.85365105,-3.019874573
1665,4.203639984,0.086711973,8.206921577,7.241159916,-15.04317379,-6.918676376
1666,4.135238171,-0.029109012,8.591184616,9.168171883,-13.51643753,-5.740875244
1667,3.610373497,-0.931761563,8.654888153,4.559301376,-14.61431313,-2.24006319
1668,3.580186367,-1.518624544,8.226589203,0.069135115,-12.46573353,-4.240478992
1669,4.140693188,-1.100232363,7.690500259,12.58254623,-9.790826797,-12.28139782
1670,4.347121716,-0.643521905,7.688695431,26.60997009,-15.63104153,-18.93519783
1671,4.275862217,-0.021175483,7.519254684,24.13033676,-19.24852943,-18.33503342
1672,4.307508469,0.080921665,7.627253056,17.54187012,-20.80124664,-14.57706833
1673,4.420869827,0.21876739,8.164467812,14.07840443,-27.94254494,-14.02902889
1674,4.69777298,-0.016142678,8.063583374,8.842725754,-42.20097351,-12.81374073
1675,4.693197727,-0.356829017,7.879822731,7.524831295,-53.7787323,-12.6810503
1676,4.91158247,-0.067358851,7.605353832,3.708094835,-66.83299255,-14.52965832
1677,5.523234367,0.029623386,7.66572094,18.21129036,-72.87123108,-17.59722137
1678,5.997634888,-0.157830104,7.92362833,53.4220047,-68.05500031,-19.66915321
1679,5.771025181,-0.170495868,7.683785915,34.95428085,-71.86132813,-11.33423901
1680,5.38330555,0.063330993,8.218767166,23.34251595,-73.38307953,-10.50726414
1681,5.430776119,-0.149007753,7.932772636,25.5200119,-77.12133026,-10.74663734
1682,5.609713554,-0.759239018,7.951060295,24.64156914,-84.14220428,-8.7576437
1683,5.831367016,-0.966222823,7.594511509,24.63302803,-86.24478912,0.315346092
1684,4.848058224,-1.212826967,8.077832222,16.96237183,-83.40682983,3.224919558
1685,4.506346703,-1.164801717,8.728269577,10.21173763,-85.42513275,0.469256133
1686,4.147687435,-1.285969496,8.826051712,-0.146726206,-86.43293762,-1.609057784
1687,4.020219326,-1.33174789,8.520511627,-4.73343277,-83.03243256,-5.273757935
1688,3.940676212,-0.840730429,8.064956665,-1.3784132,-75.01924896,-3.86274004
1689,3.962603092,-0.302831888,7.612103462,-0.5577631,-64.6686554,1.258479238
1690,3.884487867,-0.269757211,7.29802227,-0.897453249,-55.81654358,5.658016682
1691,3.536245108,-0.570806444,7.547007561,-0.391653061,-45.01269531,7.676514626
1692,3.687444448,-0.62898922,7.44743824,0.743206441,-31.17596245,9.266888618
1693,4.508309841,-0.357673854,7.633767128,-1.473078489,-20.97936058,8.971880913
1694,4.553327084,0.083561279,7.894337654,-13.82712078,-8.043317795,7.472839355
1695,4.256594658,0.950458348,7.860971928,-21.87133408,7.478051662,3.335394382
1696,4.105233192,1.02105689,7.27468586,-22.83979607,23.75483131,-4.606045246
1697,4.343636036,0.34936136,7.065617085,-11.5755043,38.36344147,-8.026958466
1698,4.16212368,-0.568797231,7.464355946,-8.894557953,47.28261185,-6.659536362
1699,4.138947487,-0.626901329,7.725293636,-5.707507133,60.73203659,-7.345436573
1700,4.275635719,-0.179931924,7.312803268,-2.577745438,70.38108826,-3.990464211
1701,4.260715008,0.559330285,7.234678268,-3.488651752,77.54068756,-2.730154037
1702,4.507179737,0.870912731,7.223814964,-0.660785139,82.86741638,-2.115749598
1703,5.088627338,1.037620068,7.561478615,-6.983080387,80.68503571,2.020165205
1704,4.882671833,0.910280585,8.570292473,-12.89802456,81.52935791,8.921933174
1705,4.655086517,0.036249194,9.192733765,-17.98887444,81.34432983,10.57404995
1706,5.722343922,0.222083509,8.634437561,-10.13773441,76.19777679,10.12378788
1707,6.307744503,0.137019083,8.494231224,-10.52989769,56.42978668,12.22120857
1708,6.857168198,-0.622892022,8.928440094,-8.979895592,33.63592148,15.94552803
1709,7.576607227,-1.594385386,8.090373039,-14.23400211,17.0772686,16.35450363
1710,9.903999329,-2.455564499,8.348935127,-22.84276772,22.64302063,11.30114365
1711,14.20163536,-2.498908281,11.25108242,3.116979599,45.29690933,-6.593486786
1712,17.47361565,-0.66278547,10.67877197,54.20144653,50.72909546,-22.03550148
1713,16.61989975,0.492992282,6.708240986,59.5926857,15.10560703,-14.32123947
1714,12.73997402,0.938058376,5.800415993,48.08046722,-3.767577171,-11.44102859
1715,11.09924698,1.174748182,6.603122711,29.21701622,16.64166641,-16.35997009
1716,11.80101681,0.058862586,5.648165703,22.6651516,30.29694748,-15.44725037
1717,12.64988422,0.139811128,3.510093451,12.52307224,36.23376465,-12.48569679
1718,10.35655117,0.675890446,1.989329696,-19.60145569,47.07122803,-9.228279114
1719,5.519911289,0.273038089,1.289476275,-63.22198868,50.66640472,-7.941939831
1720,3.02994442,-0.525801837,3.041734457,-35.11445236,25.34261322,-18.72898293
1721,0.4955841,-0.2179344,6.049294472,-31.62383461,29.95578957,-17.54233932
1722,-0.169266954,1.714973092,8.108622551,-6.942629814,47.96701431,-16.67014313
1723,1.05018723,0.083486669,8.623661041,-30.34597397,48.87829971,-2.833937407
1724,3.168694496,-0.894119203,9.26960659,-29.30676079,39.14038467,5.6715765
1725,5.36450243,-0.317102879,9.295722961,-26.96232796,26.9904995,3.142200947
1726,5.155375004,0.135981992,8.552897453,-21.99654579,18.16477966,3.471997261
1727,2.906206369,-0.49711144,9.243989944,-18.06659698,17.07892609,3.374999285
1728,1.857070923,-1.201623559,10.08499908,-19.60367966,18.88677025,2.337376118
1729,1.390792131,-1.728058457,9.869244576,-16.90705872,19.77423477,-0.409202278
1730,2.421416283,-1.555801868,9.162791252,-10.47400856,16.25499916,-5.506584167
1731,3.764042139,-0.586256087,8.728625298,-8.68091774,9.247284889,-3.994776726
1732,3.44664669,-0.709148347,8.695856094,-12.3343153,1.678561211,0.734246075
1733,2.542918205,-1.667081118,8.681155205,-5.175130844,-5.193123341,1.159986615
1734,2.315079451,-2.197280645,8.886497498,9.80420208,-9.679335594,-3.852044106
1735,3.249378204,-2.005694866,9.042082787,16.58540726,-13.83122158,-8.853039742
1736,3.857491493,-1.489575744,9.233531952,19.15056038,-16.56422806,-12.14343739
1737,3.775788069,-0.937678099,9.577185631,24.4277668,-18.6220932,-13.23428726
1738,3.376774311,-0.165187642,9.35365963,34.51521301,-16.60326195,-14.02601814
1739,2.782257557,0.770543039,9.4448452,36.78837585,-17.36413765,-13.26045609
1740,2.790577888,0.744941533,9.675646782,28.03741455,-19.78497124,-8.723517418
1741,3.535262108,0.069174118,9.552628517,19.28973007,-20.53373718,-3.301409483
1742,3.739988327,-0.927975774,9.351670265,15.755126,-23.17936516,0.237065405
1743,3.829276323,-1.236679316,8.839349747,16.20984077,-27.1994381,-3.816151381
1744,3.774875641,-1.195530772,8.968414307,15.52271652,-30.93157005,-8.467328072
1745,3.935272694,-0.888460636,9.098295212,16.50129509,-31.84281349,-10.55992603
1746,4.520671368,-0.473516375,9.235275269,17.26872253,-28.71741486,-12.7976675
1747,4.863591671,-0.170282632,9.325080872,20.64543915,-24.88921928,-15.68505001
1748,4.825372219,0.308903039,9.363089561,23.14810562,-20.65493393,-14.45803165
1749,4.606206894,0.439640999,9.034339905,19.82340431,-16.23999405,-9.614060402
1750,4.618525505,0.033801343,8.816779137,20.95199585,-13.2134428,-7.55311203
1751,5.130152702,-0.147156671,9.018115044,23.25382423,-11.35205173,-9.300738335
1752,5.672291279,0.20810993,8.885404587,21.64161491,-7.181887627,-11.71073627
1753,5.694949627,1.110777855,8.424603462,14.51449203,0.775406599,-16.20472145
1754,5.412011623,1.754236817,8.190984726,1.434677958,11.52419949,-14.80054665
1755,5.61725378,1.936552286,8.059188843,-20.12526512,15.68664646,-7.226986408
1756,5.088329792,1.300292134,7.855368614,-41.37493515,15.42460632,0.312022448
1757,4.767849922,0.241031185,8.292666435,-43.72712708,8.98820591,6.620564938
1758,5.149748325,-0.988726497,8.494725227,-27.27436638,3.155743599,8.850359917
1759,4.77409935,-1.247339964,8.824824333,-4.336462498,-7.263751507,5.740954399
1760,5.43730402,-0.645667315,8.796871185,8.546449661,-16.54910088,0.330231339
1761,6.109331608,-0.45556882,8.634894371,9.345191002,-22.83351517,-1.186587811
1762,6.226797104,-0.922005653,8.827780724,-6.189328194,-22.99007797,1.762784719
1763,5.090542316,-0.596492946,9.561454773,-29.27655792,-33.678936,-0.400444537
1764,5.279425621,0.401358992,7.277159691,-12.03457546,-76.03420258,-9.730049133
1765,5.79153347,2.558881998,6.806141853,30.87929153,-73.46473694,-8.074546814
1766,6.164581299,1.524364471,6.940860748,64.23867035,-68.94574738,3.194022417
1767,6.31726408,-1.357165217,8.05971241,77.61994171,-77.58205414,7.635336876
1768,6.452721596,-0.967112899,8.16075325,50.80425262,-97.81336975,-0.866034389
1769,5.437721252,0.33226347,8.104976654,34.90053177,-103.9073563,-5.633700848
1770,4.960582733,0.937816679,7.92338419,23.2261734,-100.7487259,-5.429508209
1771,4.877540112,1.047913432,7.536146641,20.13009453,-99.89156342,-0.883260489
1772,4.802318096,0.58565861,7.665919781,19.57351494,-96.50450134,1.382012486
1773,4.609939098,-0.496086299,7.947108746,22.96592903,-94.61289215,4.581695557
1774,4.588297844,-1.14913559,8.379242897,19.60880852,-86.12976837,5.579784393
1775,4.280776024,0.132954866,8.242921829,11.34811687,-71.50832367,4.590297222
1776,4.203235149,0.829026103,7.685174942,2.558269739,-55.80955124,1.771976471
1777,4.174328327,1.638489604,7.254049301,-5.146662712,-43.2983017,0.08081501
1778,4.477878571,1.478820205,7.298957348,-7.921897888,-32.09753418,1.171753407
1779,5.240857124,0.589330792,6.519573689,-9.939916611,-16.41026688,2.284879446
1780,4.659302235,-0.263045251,6.358893871,-3.526241779,-5.94107151,3.430789709
1781,2.774313211,0.113460615,6.166913033,0.195354581,12.87797737,3.640815258
1782,3.014751911,0.791785121,6.003148556,3.510742188,36.14488983,3.647642851
1783,5.312298775,0.513460636,5.882157326,2.686750889,49.39243698,0.787603855
1784,5.438081264,-0.544151723,6.215193748,3.753884077,46.40764618,-7.440918446
1785,3.838662624,0.848539531,6.756973267,10.67974663,53.44698715,-10.79225826
1786,4.028985023,1.683789015,7.052560329,18.39966202,62.46278381,-4.065692902
1787,4.111235142,0.660230517,7.048501968,25.27349472,68.94842529,2.299186707
1788,3.782977819,0.472982705,7.215098381,27.15622139,75.98571014,5.297353268
1789,4.495494366,0.992869258,6.892922878,19.67064095,80.7974472,8.462721825
1790,4.820970535,1.012046456,6.532054424,13.67234802,84.78259277,11.58150291
1791,4.608186722,0.35590139,6.88804245,6.481993675,88.04027557,14.2017765
1792,4.614635468,0.04919754,7.142047405,9.402632713,89.41086578,14.95328426
1793,4.893510342,0.182398066,9.260050774,2.802256823,89.06391907,12.31710911
1794,5.824422836,0.10166464,9.303652763,-6.701011658,76.34030914,8.411379814
1795,5.604774952,0.575796247,9.015746117,-20.4493084,58.65228271,9.248111725
1796,6.116905212,1.241966248,8.27130127,-38.82849884,50.22878265,10.99585247
1797,7.599265575,1.175393462,7.728447914,-49.5123291,56.57715988,9.576864243
1798,9.939227104,0.403874218,9.418365479,-43.03678894,82.32822418,-2.40355587
1799,13.92498779,0.294319302,10.78145885,-11.10747051,120.1627655,-20.5664463
1800,15.73157215,2.251376629,10.41500664,4.849862576,132.3998566,-22.30048752
1801,14.99838352,2.987930775,9.574931145,-7.357223511,109.5049438,-9.860563278
1802,13.10980034,0.388694108,10.44948006,-8.553250313,99.99222565,-7.711650848
1803,10.87769127,-1.770751476,9.415859222,9.80820179,104.1177216,-11.50154305
1804,8.961134911,-1.051400185,7.897825718,27.02074051,104.7026443,-19.595541
1805,8.906703949,1.293519378,6.519094467,7.062907696,90.13500977,-18.46528816
1806,9.220750809,2.233407736,5.443159103,-35.98198318,62.34367752,-13.07666779
1807,7.668323517,2.175973415,2.909267187,-64.12088776,48.82144165,-11.61178875
1808,4.945009708,-0.300132483,1.881082892,-69.31697845,22.83285332,-7.67858839
1809,1.241376162,-1.754970074,3.815346241,-18.66020393,7.257774353,-10.71972752
1810,-3.067495584,-1.137285829,7.626835823,-30.38701057,18.37125015,-10.41542816
1811,-2.147752047,0.659142673,8.747161865,-21.51223755,21.28103828,-1.021745086
1812,0.923646688,0.485821545,10.28374767,-0.505313516,18.01413155,6.189565659
1813,2.386121035,-0.036472481,10.36343384,-8.674726486,14.7052269,12.25828743
1814,4.14153862,-0.180750683,10.65964413,-23.20368195,10.11007977,14.59298325
1815,3.972715378,-0.127774924,10.14447689,-34.89373779,-0.463701129,16.2003727
1816,1.053730488,-0.699418426,9.903187752,-38.56663132,-7.073322773,13.47383976
1817,-0.5406726,-0.899717569,9.869756699,-30.74835396,-11.50814629,9.56777668
1818,0.388912231,-1.24117744,9.38032341,-13.88799477,-14.61571693,4.415321827
1819,1.709673047,-1.063186765,9.272414207,-1.899683714,-18.75088882,2.541032791
1820,2.802442789,-0.526029289,9.410235405,-2.613153458,-23.35835457,2.232990026
1821,2.534894705,-0.63861686,9.704026222,0.571042717,-24.56160545,3.633777142
1822,2.55582118,0.096261822,9.46558094,1.307601571,-23.9851017,4.331929207
1823,2.112313986,0.350464702,9.066796303,-6.113110542,-20.17125893,10.48956776
1824,2.169350863,-0.002610966,8.968395233,-4.895058155,-18.02555275,16.06978035
1825,2.121473074,-0.389778048,9.09396553,-4.280784607,-23.14815521,17.97955513
1826,2.050573111,-0.263653725,8.849074364,-7.08222723,-27.3880043,17.77881622
1827,2.157086849,-1.146801353,9.100111008,-13.28793812,-30.33062363,19.70753098
1828,2.060003996,-2.423408747,9.394165993,-12.74348927,-32.26790237,17.33997345
1829,2.771800995,-2.778673172,9.46935463,-4.743261814,-37.50932312,13.03153229
1830,2.844274998,-2.641498327,9.631988525,4.503285408,-40.86800003,10.58224297
1831,2.974443436,-1.966278195,9.681157112,9.024710655,-41.12697983,6.470135212
1832,3.289973497,-0.933450758,9.989829063,16.85339546,-40.81506729,3.685930014
1833,3.554543972,-0.112810299,10.06991196,12.14453411,-35.21890259,4.612390041
1834,3.943736076,-0.166599855,9.927726746,0.389282167,-28.38374329,5.640464306
1835,3.86029315,-0.633519828,9.805626869,-9.308280945,-25.32440567,6.241568565
1836,3.893157482,-1.174760222,9.710199356,-13.10682392,-24.61712646,2.923320055
1837,3.739449501,-1.327293754,9.485805511,-16.94768143,-23.3859539,0.496337086
1838,4.110966682,-1.039531827,9.646282196,-24.70121002,-23.4083252,-1.485741019
1839,4.476706982,-1.426289439,8.960098267,-24.25963783,-18.09139061,-2.259284258
1840,4.142346859,-2.616561174,8.461605072,2.379862547,-9.698444366,-2.391420126
1841,3.88807559,-2.475239754,8.444516182,23.59115601,-3.72977972,-4.836852074
1842,3.544941664,-1.424774885,8.67935276,22.38518143,2.394901276,-10.24867535
1843,3.447739124,-1.249812961,8.953109741,18.65821648,1.966578841,-15.02889442
1844,3.866288662,-0.999854088,9.456757545,15.5657711,-5.954810619,-16.59161758
1845,4.442621708,-0.878151834,9.823343277,17.00618553,-12.32416916,-14.94683743
1846,5.19049263,-0.9555462,9.361307144,5.169000626,-9.4915905,-13.56521702
1847,5.011294365,-1.320509672,8.269355774,-15.24875641,3.666763306,-8.700861931
1848,4.505932331,-1.489512205,7.816319942,-12.41794395,5.103085041,-7.548825264
1849,4.27452755,-0.544650793,6.959028244,8.904460907,8.973550797,-9.967599869
1850,4.916146278,0.282559782,7.360476494,32.63835144,1.379230261,-10.68739128
1851,5.024525642,-0.042747419,7.890017033,27.71117592,6.206828117,-10.23512268
1852,3.926101446,-0.230911374,8.280522346,24.08660698,-5.288869381,-10.18850136
1853,3.874448061,-0.061918117,7.14586544,37.54984283,-15.80842304,-10.17913914
1854,4.211453438,0.930739045,6.885446072,81.64570618,-19.38367462,-4.406352043
1855,4.589011192,-0.242298901,8.265583038,100.258049,-35.90826416,1.879310966
1856,4.816812992,-0.802999198,8.531952858,85.36974335,-61.61402893,-2.232131481
1857,5.365934849,-1.489745021,8.259110451,56.78215027,-83.01999664,-10.44277668
1858,5.819214344,-0.459372818,8.302274704,37.53949738,-108.3702927,-15.61359882
1859,5.965773106,0.693618476,8.396286011,28.75385666,-129.4140472,-11.53912354
1860,6.407598495,1.284488082,9.111247063,28.37705421,-143.2845764,-5.959281445
1861,6.627259731,1.388238907,9.506832123,30.54792976,-150.4542542,0.998485208
1862,5.96639061,1.305061817,9.054385185,27.20400238,-148.3055878,7.746177197
1863,5.977318287,1.758423448,8.642634392,20.91414452,-137.9330292,12.1395998
1864,6.129673004,1.733426332,8.278502464,14.02681351,-122.9838715,15.5512619
1865,5.210869312,1.699262023,7.747232914,7.800530434,-105.7670975,17.34884644
1866,5.086417675,1.292731524,7.363922596,-2.183930397,-89.62976074,13.75618076
1867,5.794547081,0.735830367,7.417747974,-7.965026855,-76.46247864,10.27962399
1868,5.705909252,0.057244632,7.790178776,-12.77239895,-70.02281952,4.022361279
1869,4.927237988,0.359022468,7.538849354,-16.59659195,-63.85190201,-1.828339219
1870,4.177456379,0.770605683,7.302322388,-25.46908569,-53.48289108,-6.994211674
1871,3.941302061,1.236896157,6.944953918,-35.04414368,-37.17749405,-10.06598854
1872,4.057793617,1.425587773,7.143063068,-40.0598793,-17.48369217,-6.905526161
1873,4.233819485,1.426418543,6.869772911,-46.15918732,2.267810345,-5.459657192
1874,4.011054039,0.768846691,6.304063797,-50.97488785,26.77130318,-3.017313719
1875,4.568146229,-0.551155865,6.102164745,-57.50079346,38.26133347,-4.73237133
1876,4.160927296,-1.100424409,5.70651865,-56.54798889,47.62095261,-4.624603271
1877,4.064538479,-1.033934355,6.109014511,-50.96346664,57.42300797,2.201028347
1878,4.150999069,-1.006792188,6.656699657,-45.8359642,67.02419281,4.252704144
1879,4.138790607,-1.292535424,7.452821732,-38.883255,71.45858765,5.571385384
1880,4.241526127,-1.049123049,7.382929325,-29.43220711,78.40776062,6.65190506
1881,4.77068615,-0.609125078,7.23262167,-21.79644585,85.03391266,9.314347267
1882,5.576343536,-0.591908574,6.811818123,-20.67846107,89.40120697,12.09717178
1883,5.685889721,-0.899276853,6.427299976,-14.61522865,88.2463913,10.98294258
1884,5.891415119,-0.291443497,7.250175476,0.320285678,68.09107208,9.269318581
1885,5.514503956,0.592038333,8.197650909,24.97815514,46.88989639,11.59809589
1886,6.858100891,0.599401772,8.259313583,52.24520874,17.21841621,13.98910332
1887,7.891930103,0.669983864,8.562074661,47.1720314,-11.82013702,14.91644001
1888,7.294367313,0.660530031,6.961516857,22.37549019,-12.1772728,12.08695602
1889,8.040173531,0.698930383,5.792480469,5.524298191,4.954363346,11.42345715
1890,11.21698856,0.741626382,7.006099701,-11.83677578,22.50634575,11.37166691
1891,15.63612461,-0.437265813,7.881808758,-18.63740921,30.80939865,6.979973316
1892,18.54874039,-0.663217187,6.738195896,-0.293009698,20.67921829,-0.716798067
1893,17.36858177,-0.379388064,4.145821095,-5.382189751,26.94550896,-6.281044483
1894,13.73674011,0.344965696,3.393080711,-6.027488232,54.35462952,-8.368898392
1895,11.6892395,1.426898003,3.999299765,-2.314860821,76.36613464,-13.34994221
1896,11.89840698,1.10837245,3.669186115,-7.025640488,88.07616425,-16.0493927
1897,11.68324661,0.948540986,2.682410717,-10.72636032,99.29351044,-13.85255241
1898,10.02184296,-0.462154359,3.619346619,-37.82572174,92.53422546,-2.821607113
1899,4.74608326,-1.97296977,3.383504629,-80.10812378,90.31913757,1.408162475
1900,1.444390655,-1.738561153,2.712957382,-40.47844696,55.33247757,-13.93957996
1901,-1.922785044,-2.402622938,6.677710533,-38.5480957,60.74079132,-13.70090103
1902,-1.275323987,-1.918992639,8.766674995,-12.45699215,71.33293152,2.485008955
1903,3.459183693,-1.195521116,9.170454979,-9.348227501,54.9033165,7.349075317
1904,5.208953381,-0.065905176,10.0866003,-3.938801527,45.73616791,6.733290195
1905,5.417508125,0.398157895,10.13191986,-10.00571537,40.22591019,8.362797737
1906,5.990194798,-0.366380751,10.40850449,-22.35897827,33.76557159,9.581832886
1907,3.978923798,-2.055314541,10.82756519,-36.08209991,31.32183838,4.328228474
1908,1.642061114,-3.179663181,10.40695095,-24.7118721,35.80425262,1.223277092
1909,0.798250556,-3.14888835,9.530770302,-12.38044071,33.98423004,1.035686255
1910,2.150866985,-2.062234163,8.903474808,1.206225753,22.66925621,0.985098243
1911,3.446228504,-1.470714688,8.519928932,12.87425804,13.49984837,-2.924371958
1912,3.575576067,-1.48476243,8.241238594,22.9908123,9.553975105,-7.1562047
1913,2.686520338,-1.134126067,8.283630371,34.66640854,9.444084167,-12.23453045
1914,2.834125519,-0.700068057,8.789378166,36.20763779,10.39907742,-13.4584589
1915,2.936758041,-0.399482816,8.913136482,31.24504852,11.73053265,-9.550325394
1916,3.400032997,-0.538617194,9.170034409,26.49034691,10.74684334,-3.185921431
1917,3.639593601,-0.777446389,9.436103821,15.94290829,11.13954735,0.536900461
1918,3.468323708,-1.674176216,9.503091812,9.836527824,12.61776257,5.160323143
1919,2.652064085,-1.98899591,9.714081764,12.75011253,10.58467102,7.159544945
1920,2.385759592,-1.699255586,10.03089809,16.37886047,6.53442812,5.953979492
1921,2.280212164,-1.345606208,10.44198799,21.40310478,0.391164243,4.588080883
1922,2.906505108,-1.042847276,10.84514046,31.04916191,-3.775965214,3.102931738
1923,3.417164326,-0.668493927,10.81581211,36.31184769,-1.005559087,1.215962052
1924,3.199926615,-0.641263962,10.49626255,35.8261528,1.478653312,-1.142363429
1925,2.924352169,-0.472534508,10.01866245,37.04546738,-0.703065574,-3.998424292
1926,3.104686975,-0.306689978,9.696730614,33.30508423,-3.929632425,-7.283846855
1927,2.903479576,-0.169334501,9.340577126,24.20805359,-5.539969444,-7.025663376
1928,2.942890882,-0.162511513,9.424539566,15.43401814,-6.959067822,-6.266422749
1929,3.089939117,0.155369118,9.262312889,9.153286934,-8.008020401,-6.382125378
1930,3.179939032,0.461123347,9.23987484,0.583425403,-4.871780396,-4.940268517
1931,3.82375288,0.184708402,9.142230988,-9.671167374,-3.224575996,3.553628922
1932,4.006618977,0.061998427,8.931975365,-19.25192642,1.374667525,5.209726334
1933,3.650875807,-0.191730618,8.451317787,-21.20762444,8.56050396,3.3942976
1934,3.147415161,-0.439225972,8.493440628,-22.08734131,12.94136429,0.718828499
1935,3.014359713,-0.306981891,8.664248466,-22.7401638,15.06735611,-0.843120992
1936,3.297299862,-0.268299222,8.380999565,-32.53615189,19.80929756,-1.166356802
1937,3.260771275,-0.635950208,8.31943512,-32.42186356,19.57434273,-3.678066254
1938,3.622955084,-1.393701553,8.823334694,-19.01372337,10.97551537,-4.561860561
1939,3.684594154,-1.370368361,8.733345032,-4.264234066,10.08120632,-0.821578801
1940,2.877717972,-1.353809595,9.476984978,-4.471685886,13.38406086,1.799095154
1941,3.176595688,-1.555258036,9.346518517,-22.25790405,14.85149193,0.04163995
1942,3.357335329,-0.778314412,7.384380341,-4.78874445,7.358973026,-5.292738438
1943,3.362961769,0.111775875,7.631436825,21.05469894,-12.87258148,-6.010539532
1944,3.480621815,0.503030598,7.987485409,20.43642426,-23.42176819,-3.540519714
1945,4.019279957,-0.100620434,7.784271717,42.67968369,-35.91771317,-6.391450882
1946,4.123627186,-0.770407081,7.822237015,40.58158493,-44.33450317,-7.705636024
1947,4.256732464,-1.698779106,8.416243553,50.30951691,-52.49368668,-7.216109276
1948,4.826444626,-1.070477366,8.680037498,59.46905136,-58.29907227,-8.738993645
1949,5.168838978,0.205706954,8.650297165,63.37369919,-60.28541565,-5.486984253
1950,5.933078766,0.732366502,9.390411377,56.20455551,-59.88264084,4.059927464
1951,5.462930679,1.099801183,9.575914383,37.50152969,-64.48427582,0.32104221
1952,4.294326782,0.451982081,9.557644844,53.73627853,-87.42410278,-4.035558701
1953,3.363689423,0.556728721,8.534254074,89.46910858,-109.0797195,-3.138819695
1954,3.847493172,0.058046699,8.623984337,89.5087738,-121.7895126,7.093644142
1955,5.247645378,1.7443434,8.9260149,72.31590271,-130.1173248,17.42485046
1956,5.015899658,2.247093916,9.596077919,46.59021759,-131.9486084,23.76476288
1957,4.336750507,2.365524292,9.128454208,24.86339951,-121.3311005,25.0790596
1958,4.374349594,2.520358086,7.720129013,21.86230278,-106.5021744,24.47924042
1959,4.568049908,1.680328965,7.21361351,22.32429123,-96.12220764,22.8047123
1960,4.63089323,0.290900797,7.462599277,19.7794075,-93.89361572,18.90534592
1961,4.319123745,0.44342944,7.623701096,18.43092346,-94.64917755,14.72132683
1962,3.793921471,1.406483769,7.455466747,16.28664207,-82.51305389,13.71182156
1963,3.767187834,2.051597118,7.412331581,8.522463799,-73.01979065,7.802578449
1964,3.851215124,1.884263039,6.988245964,-0.93526274,-67.40013123,-0.422360152
1965,4.101341248,1.254081607,6.396300316,-11.33249569,-58.33003998,-7.524645329
1966,4.100521564,1.439124823,6.440275669,-18.24551201,-43.29733276,-3.61348772
1967,3.754637718,1.108657956,6.710869789,-21.25011253,-22.91699219,1.974988699
1968,4.09659481,0.498013616,6.717597008,-26.38128471,1.02203238,1.333381057
1969,4.119819641,0.989177465,6.390582561,-27.66437912,24.91589737,4.089056492
1970,4.572020531,0.743599296,6.088389874,-26.37617493,41.55558395,-0.685356796
1971,4.646446228,0.730858564,6.480575085,-22.16931343,53.39285278,-2.445919991
1972,4.633865833,1.05021131,6.440989017,-19.046278,60.97568893,-1.773185968
1973,4.393156052,0.988674879,6.718820095,-9.278740883,71.31180573,-1.742835045
1974,4.116833687,0.694482505,7.041974068,-6.192534924,80.03363037,0.096107431
1975,4.611468792,0.727199674,6.908627033,-2.048022747,88.5765686,-3.179200172
1976,4.424253464,1.172224402,7.242614746,-0.224155501,87.10101318,-2.910333395
1977,4.570158005,1.386448622,7.447198391,-6.786942005,89.24291992,-1.916063428
1978,5.026836395,1.067108989,7.480900764,-10.60087585,84.81911469,-0.429708958
1979,5.221596241,0.291523635,8.476667404,-12.56539059,78.67687225,-4.554289341
1980,5.656448841,-0.151457697,9.352191925,-17.08012199,69.57418823,-9.295729637
1981,6.421213627,-0.255596936,9.08096981,-30.94835281,49.34406662,-10.8076067
1982,6.617794037,0.679294169,8.628666878,-50.4642334,19.69076347,-11.26028252
1983,6.55092907,1.72951889,8.262479782,-62.2351532,-2.331696749,-7.128944874
1984,7.769673347,2.387306452,7.845720768,-46.97509384,-0.373051852,1.842342138
1985,9.780335426,2.293396711,8.701917648,-32.98791885,16.68631744,9.11560154
1986,13.04393291,0.858180404,10.00465965,-34.0376091,34.21417999,3.515506029
1987,15.04606438,-0.37383762,10.28406525,-23.29195786,41.6857872,-7.84820509
1988,14.98492527,-1.485574722,8.393938065,-19.78825951,17.80683517,-13.63181686
1989,14.9264698,-2.966890574,7.625393867,-11.10536289,6.33505106,-9.088552475
1990,12.49984837,-2.418656588,6.699989319,11.52915382,25.2031517,-12.74950695
1991,11.31531334,0.123346582,4.807596684,15.65626526,38.04069519,-24.96750069
1992,11.88899422,1.178053737,3.717773914,-0.100416303,65.05358124,-25.15658188
1993,11.9304018,0.788637936,2.749365807,-18.31130219,77.19859314,-17.37944031
1994,10.84620762,0.473661155,3.104474306,-44.71455002,73.55000305,-3.428964376
1995,5.740865707,0.028509861,3.525961637,-52.51653671,62.70319366,1.093989015
1996,3.523194551,-1.012937546,5.00586462,-7.548526287,31.49659729,-1.713982582
1997,-1.198233604,0.046929128,8.771652222,-21.7480278,46.69577026,-6.302743912
1998,-1.317872524,-0.671941519,8.454991341,-29.45088768,65.48405457,1.531129122
1999,1.988656878,-1.650813699,7.806771278,-32.49666977,53.30220413,7.723924637
2000,4.863250732,-1.905205369,9.46156311,-8.41119194,55.35282516,10.95318604
2001,5.445441246,-0.508470058,10.85271549,15.45153904,61.67301559,9.154348373
2002,4.92401886,0.33050397,9.649881363,21.33569145,54.80311966,8.408133507
2003,3.603920937,-0.172957882,9.512755394,24.16257477,48.52848434,3.440660238
2004,1.741041064,-0.174792096,9.399458885,24.67856598,40.57289886,4.305779457
2005,-0.177247137,0.306942761,9.501636505,23.18371964,38.192276,-0.103437603
2006,0.005219154,0.155599356,9.211482048,29.40330505,33.45560837,-3.182931423
2007,1.591630578,0.633326828,9.04314518,26.20870018,22.92512131,-1.07633996
2008,3.067717314,1.116482139,8.843643188,12.2673769,11.88076591,4.712275028
2009,3.052124739,0.947049916,8.685598373,2.159618855,6.174884796,7.299206257
2010,1.995923162,0.284912854,9.078767776,-6.584618568,6.52950573,7.32202673
2011,2.089128256,-0.336032897,9.49407196,-11.2103281,8.051312447,4.627340794
2012,1.921375275,-0.628134966,9.3639431,-9.381811142,10.93610001,3.4966681
2013,2.147323847,-0.679330468,9.203396797,-4.410682201,11.07224846,3.471585512
2014,2.332683086,-0.670914829,8.966420174,3.496480703,10.04971123,2.764751196
2015,2.241969347,-0.318173081,8.877212524,11.43921757,9.473275185,0.012614265
2016,1.985762,-0.081765927,8.899835587,11.86296463,7.026503086,-1.679790854
2017,2.095890284,-0.064510234,8.827483177,10.68831348,4.870423794,-3.244484186
2018,2.246524572,-0.301562518,8.960243225,10.26930141,1.885236382,-5.688051701
2019,2.575732946,-0.21163778,9.076435089,8.129351616,3.319323778,-6.832651615
2020,2.645367384,-0.002333406,8.601902008,8.618665695,15.64918232,-6.903387547
2021,1.754838705,0.011488434,8.724417686,41.07409668,20.97365761,-9.734285355
2022,2.060941696,-1.394395828,9.641558647,44.75902176,15.36532688,-10.40339375
2023,1.868555903,-2.251363754,8.686419487,20.03157043,8.158460617,-7.756641388
2024,2.322731972,-1.502696395,8.428032875,34.09011841,-4.513348579,-8.240984917
2025,1.900422335,0.588891566,9.029202461,38.45205688,-8.68841362,-7.027178288
2026,2.044392824,1.835489988,9.585562706,36.90517044,-10.12853718,-2.114589214
2027,2.711869478,1.261096954,9.817590714,30.82735252,-13.71399689,2.166612864
2028,2.600647211,0.1106776,9.379104614,30.84708405,-16.98023987,2.389380932
2029,2.608703613,0.044718079,9.361850739,38.10355759,-21.67367172,-0.066727944
2030,2.856263638,0.677414477,9.270391464,38.38025284,-25.67518616,-4.881541729
2031,2.698954105,1.328083158,9.440504074,37.74290466,-29.09717369,-6.683688164
2032,2.67443943,1.871769428,9.456268311,31.00416946,-30.19534874,-6.904192448
2033,2.814472675,2.059154034,9.30987072,24.20444489,-34.8874588,-6.45209837
2034,3.524441957,2.374078989,9.148309708,15.17455101,-36.36139297,0.203910217
2035,3.612378359,2.554671049,9.204133987,-0.82330519,-37.95107651,0.73868686
2036,3.775994778,2.372068882,9.34145546,-15.84829998,-41.18242264,3.721493483
2037,3.878964186,1.724889159,9.428073883,-22.1791687,-41.31647491,3.039617062
2038,3.992420197,1.671319008,9.219937325,-24.37654877,-42.01993942,-2.465345383
2039,4.246635914,2.809930563,8.181180954,-38.25322723,-40.49835587,-0.691031814
2040,4.034868717,2.841479063,8.153343201,-45.80778885,-41.48551941,6.359194756
2041,4.581920147,1.313655972,9.052504539,-27.66911316,-31.96616745,7.458786964
2042,5.095713615,0.199137166,9.649721146,-12.46337414,-30.18871307,6.10657835
2043,5.076182365,-0.878753662,9.247392654,-9.254451752,-38.6009903,6.128769875
2044,5.188342571,-1.009139538,9.145062447,-6.687362671,-46.64578629,1.025252461
2045,5.456277847,-0.328139424,10.1306057,0.803333402,-59.69002914,-6.040524483
2046,5.208714008,0.62412405,10.26779747,18.51855469,-78.28240967,-8.126097679
2047,5.399840832,1.023881078,9.556820869,26.78460312,-91.19884491,-3.513066292
2048,5.984142303,1.035441875,8.750717163,9.302147865,-83.33763885,3.579283953
2049,5.397445679,1.397040129,7.543646336,-16.9740715,-100.0141296,5.920987606
2050,5.396230221,0.948885858,6.645781517,-16.28777885,-106.9185028,6.726422787
2051,5.528318882,-0.181391776,6.914624214,-9.375117302,-84.53125,8.206578255
2052,6.61288023,-0.160802335,7.314224243,-9.341310501,-70.21607971,6.418906212
2053,5.707069397,0.899149597,7.062134743,2.02931118,-70.90024567,4.817327976
2054,5.619956017,2.087800741,6.908109665,14.89419556,-73.46443176,7.321305275
2055,5.051071644,2.049151182,7.454116344,21.36897087,-69.88245392,14.9283123
2056,4.870080948,1.131550312,7.346257687,21.97714615,-72.14243317,15.56838322
2057,3.953543663,-0.048239823,7.364161968,23.10706902,-75.32776642,12.21310711
2058,4.150080681,-0.635818303,7.347602367,25.02372932,-76.57839203,6.886459827
2059,4.464550495,-0.367176145,7.52304554,25.89819527,-77.06169128,5.327194691
2060,4.466073513,0.38684845,7.345844746,24.87871361,-72.06113434,4.229229927
2061,4.059645176,0.981737256,6.997278214,19.46871185,-58.74918365,1.593291521
2062,4.073412418,1.155106068,6.868267536,11.24624348,-41.54257965,2.273417234
2063,4.585449696,0.976603031,6.80889225,-1.758891702,-23.46622276,3.217121601
2064,5.905360699,0.862013817,7.145082474,-10.70998573,-11.45383072,4.509229183
2065,5.946233273,0.351898581,6.969123363,-19.35960579,1.075011492,8.857492447
2066,4.606173515,-0.947771251,7.068098068,-22.23742104,14.31716728,9.151889801
2067,3.623056889,-1.585952997,7.208053112,-20.82667542,31.17614937,4.091002464
2068,3.858989954,-0.799969018,7.107877731,-18.83029366,48.84714127,4.343680859
2069,4.846181393,0.143787101,6.568115711,-25.07875824,62.25074768,2.739930153
2070,4.516646385,-0.156099334,6.72435236,-30.30485344,70.83370972,-3.41813755
2071,4.037367344,-0.659581959,6.886733532,-32.27385712,77.28996277,-8.042831421
2072,4.378145695,-0.000937536,7.155270576,-30.83974838,80.02035522,-6.062465668
2073,4.446864605,1.176999927,6.984550476,-36.21781158,79.99068451,-0.141603649
2074,4.855990887,1.341305017,7.633682728,-43.86930847,79.46464539,2.711957693
2075,4.763855934,1.699277878,8.613335609,-59.88285828,76.51200104,4.29101944
2076,5.164845467,1.292517543,8.752851486,-65.47724915,69.99941254,2.647279978
2077,5.583423138,0.942888439,7.945634365,-59.31720734,62.27484512,4.788131237
2078,6.150783539,0.477112025,7.741906166,-50.90106964,46.45023346,12.94483185
2079,7.033930779,0.815372884,8.597058296,-46.90024185,27.04441261,23.49799538
2080,8.148496628,0.214241713,8.40215683,-43.21960068,12.04448795,29.42411995
2081,10.74818802,-2.219661474,8.87032032,-38.44197083,-4.977015972,19.60605621
2082,13.27650452,-4.377361298,9.855808258,-3.265273809,-23.98913956,1.890131474
2083,14.21760178,-2.780789614,8.336293221,34.9319191,-55.08636475,-5.96822691
2084,14.39745903,-0.096878037,6.874503136,24.21115685,-94.59406281,0.820754468
2085,13.01401329,-0.498226404,5.959616184,10.34993649,-111.0102844,-2.598919153
2086,12.97292042,-0.551620841,4.054276943,15.57635117,-89.58049011,-6.894103527
2087,14.17493916,-1.275385857,2.264509678,28.78595543,-55.82557678,3.058602333
2088,14.12876797,-1.223286271,-0.17632933,44.00007629,-10.20857906,7.143248081
2089,11.83953857,-0.743897557,-0.868500769,31.59747696,23.29862022,2.132966757
2090,8.225007057,-0.124844275,2.047343731,-13.79353809,58.79416656,2.901988506
2091,3.757362366,1.054473281,2.435822964,-3.291473866,69.03516388,-10.88155651
2092,1.199169755,0.460552007,5.442621231,1.637378931,63.10136414,-3.15850687
2093,0.832195342,-0.068375647,7.708866596,-24.53049278,59.7659111,7.702410221
2094,4.28599596,-0.726037145,8.059793472,-34.17221451,59.7884903,20.52266884
2095,6.306937695,-1.3452847,7.74036932,-42.807827,53.07484818,25.46260452
2096,6.954728603,-1.722964525,8.182701111,-37.05617905,48.19165039,22.60773087
2097,6.257685661,-1.113358974,8.225059509,-26.84090042,49.53808594,17.66855621
2098,5.740754128,-1.061469078,8.530197144,-17.23312187,53.44628906,16.77516937
2099,4.903618336,-1.887431264,9.188278198,-8.665779114,56.52124405,15.97366619
2100,3.872409821,-2.218283176,9.506652832,2.59560585,59.40349579,13.85318661
2101,3.650426865,-2.464896202,9.291733742,8.188547134,59.87097168,13.10777473
2102,4.645307064,-2.246301174,8.657065392,12.2780714,55.67800522,8.654612541
2103,4.470843315,-1.723666906,8.528241158,18.78044319,50.63297272,4.780846119
2104,3.836154222,-1.174100518,8.201021194,14.17139721,39.55472946,3.256668806
2105,2.927268267,-0.722115457,8.131711006,10.21440029,29.8633709,5.201106071
2106,3.030496359,-0.30669868,8.275844574,5.636477947,23.10721016,8.812255859
2107,3.419538021,-0.302734613,8.555496216,-2.760067463,18.18631172,12.20013809
2108,3.766765594,-1.231567383,8.703130722,-9.578514099,16.00635719,11.48132896
2109,4.138417244,-2.32737565,8.738378525,-11.76116371,14.65337181,6.728984356
2110,3.953129053,-2.496522903,8.908423424,-2.694317102,15.52506638,1.085703969
2111,3.979475975,-1.788404465,8.982177734,10.92349148,16.02190018,-2.25595665
2112,3.855799437,-1.030602455,8.85395813,18.1511879,14.2031889,-3.715993166
2113,3.718853951,-0.544861853,9.151706696,23.46331596,10.69904423,-3.471899033
2114,4.043694973,-0.161497146,9.241558075,23.02123642,9.165236473,-2.750003099
2115,4.047501564,-0.576806426,9.79609108,17.66320992,10.93216991,-1.15231061
2116,3.999092579,-1.33577323,9.809980392,13.61043644,12.48301506,1.76845634
2117,3.957636595,-1.560372591,9.316036224,17.99334717,10.92521572,0.145851746
2118,3.704630375,-1.088360071,9.12653923,19.29606628,10.25068188,-3.234063625
2119,3.79107666,-0.804911971,9.262405396,14.82549763,8.934519768,-4.07034874
2120,4.016161442,-0.874773741,9.225263596,11.20676136,8.874646187,-2.929941177
2121,4.03190279,-1.204844475,9.325297356,16.79609489,9.975013733,-2.929469347
2122,4.049642086,-1.296769977,9.409729004,17.61840439,17.40870094,-4.661239147
2123,3.89400053,-0.959269345,9.521055222,19.92193031,20.91506577,-6.056973457
2124,3.749170303,-0.802687109,9.679063797,10.70261192,19.58378029,-4.950994492
2125,3.369990587,-0.546204984,8.729440689,8.91764164,14.27403164,-7.943966866
2126,3.170593739,-0.334630281,8.375384331,16.70229721,10.23116207,-9.254734039
2127,3.04628706,0.012664706,8.360208511,19.15384293,7.492233753,-8.976895332
2128,3.19366765,0.2204988,9.030241966,21.69236565,3.132586479,-6.605719566
2129,4.056432247,0.173156679,9.146566391,18.78487015,1.892480016,-4.365997314
2130,4.084929466,-0.264158994,9.022756577,18.90841675,2.856479406,-3.421681881
2131,3.805407763,-0.581344187,8.967172623,18.48303032,4.355214596,-2.366994143
2132,3.700165272,-0.277883649,8.630799294,18.12949753,8.416647911,-1.072776794
2133,3.541548252,0.138457716,8.504165649,21.29328918,11.33097935,0.024908403
2134,3.66182065,0.400095642,8.677531242,19.67560959,11.42215729,0.458826721
2135,3.877260685,0.261530757,8.482650757,17.63419533,11.14702702,0.376628876
2136,3.759104967,-0.212912455,8.442975998,18.92642975,12.13851261,1.617412686
2137,3.015495539,-0.081799328,8.62761879,20.84633064,14.45967484,3.104900122
2138,3.266036749,0.34215337,8.452904701,21.08089256,14.66457653,3.322160244
2139,3.77910018,0.490965515,8.421664238,16.43432045,15.51085472,3.521399975
2140,3.708069324,0.409264177,8.459699631,13.09841347,15.85470104,5.150370121
2141,3.418711662,0.52313441,8.586229324,12.68430519,15.55786324,8.518815994
2142,3.225488901,0.567378819,8.579690933,11.29366112,14.3633604,9.572293282
2143,3.179725409,0.26264149,8.559009552,8.365955353,13.77948761,8.198871613
2144,3.367641449,-0.033884287,8.459442139,17.6423893,14.92971802,5.748519421
2145,3.24412322,-0.116766229,8.766331673,27.14713478,17.48673439,5.68621397
2146,2.987470865,-0.040586609,8.777319908,27.51157951,18.13290215,5.433281898
