PacketCounter,Acc_X,Acc_Y,Acc_Z,Gyr_X,Gyr_Y,Gyr_Z
1629,11.63905334,-1.750167489,5.122360706,-16.2610321,30.20953178,-7.034249783
1630,12.00481129,-1.96473217,4.210317612,-6.670845985,35.36410141,-4.004436016
1631,11.93240261,-1.888636351,4.868648052,-12.97727394,50.72885895,-2.963494778
1632,11.70803452,-1.368678808,4.27968359,-27.05681038,36.55971146,3.941035509
1633,11.26394367,-0.962486327,2.95943284,-27.1129303,29.16101837,10.60896397
1634,11.42884159,-1.105148673,3.148435116,-26.61927223,49.00792313,8.996068954
1635,12.61963558,-2.253712416,4.398617744,-20.80445862,63.88140106,9.608242035
1636,12.81291008,-2.779490232,4.428787231,-38.10681152,33.5350914,18.18203163
1637,12.61076164,-2.081388712,2.701720953,-35.50636673,4.464608192,20.70166016
1638,12.28808022,-3.137183666,2.488872766,-10.45018101,2.196335554,-10.25248909
1639,7.228332996,-3.653392553,5.804462433,31.47694016,-6.724942684,-31.02047157
1640,4.488143444,2.882504463,7.271118641,39.25478363,-36.46156693,-8.242304802
1641,10.75812817,2.463007927,4.527114391,67.7277832,69.61142731,58.54489136
1642,-1.006449938,-1.74796617,11.54997349,41.11391449,145.1201782,25.04421806
1643,-2.3379457,-3.55513835,12.07608986,6.361580849,105.4863968,6.110131264
1644,2.02379632,-4.513353348,12.65202713,13.9978857,90.74407959,-13.20719147
1645,4.351452351,-0.262907535,13.47497463,1.508612633,89.91915131,-11.68550491
1646,3.605194092,2.20243144,12.04797459,15.8201561,64.81012726,-0.320343047
1647,1.939666033,0.239937499,9.795398712,0.219316259,37.45376587,9.146348
1648,2.008424044,-1.094109774,6.831844807,22.95413017,33.24480057,13.79788876
1649,1.072813749,-2.66874814,7.966829777,26.12261772,23.23785782,-0.853905559
1650,2.085001707,-2.629906893,7.975784302,15.30756569,15.69420242,2.120587826
1651,2.744869471,-2.3928895,8.501039505,15.77899361,38.56023407,12.90583229
1652,2.007651329,-1.528622389,9.702166557,7.489570618,56.05548096,16.60412788
1653,0.958769083,-0.000415681,9.634461403,12.9025526,46.50261307,10.45635223
1654,1.768895268,0.797785819,9.725624084,12.66676426,33.29959869,10.41657543
1655,2.348995447,0.751927495,9.720445633,10.39446926,33.15043259,10.70329475
1656,1.214238524,-0.085509941,10.47411442,9.544805527,20.45039558,12.58423138
1657,1.468930006,-0.857366025,10.82297325,-0.702237725,20.9898777,13.75322437
1658,0.929213285,-1.566385031,10.80321121,-13.79090595,18.54757118,9.77001667
1659,2.208405972,-1.341746807,9.886216164,-2.168282032,5.725317001,6.090259552
1660,2.665395737,-1.315569401,10.18800831,15.2571764,-3.863731384,8.739068031
1661,1.842629313,-1.637565136,10.52990818,12.80253983,-2.1908741,12.14074612
1662,1.666395068,-2.04327631,10.90492821,3.137192011,4.070967197,9.660696983
1663,1.916087151,-1.959336042,10.58340359,4.01650095,8.509942055,1.939400196
1664,2.326359749,-0.961582959,10.07439137,9.812122345,7.265192986,1.896371722
1665,2.047345638,-0.615826964,9.940123558,14.49674416,5.77923584,4.96121645
1666,2.253684282,-0.760137796,9.926000595,15.67504883,8.297045708,6.889958858
1667,2.135311604,-1.230921149,10.27637196,17.52751732,15.34165001,8.611104012
1668,2.127444983,-1.419934034,10.64365292,13.52497768,21.2550602,5.474362373
1669,2.120742559,-0.812335789,10.60665894,4.987592697,25.7201252,4.76540184
1670,1.711732388,-0.346034884,10.26987553,2.692111492,23.40056038,6.969441891
1671,1.336955309,-0.188714355,9.869189262,5.902459621,15.92805099,4.898940563
1672,1.522690177,-0.367357969,9.68354702,5.890708447,22.24264526,5.540633678
1673,1.833254218,-0.616750181,9.989459991,-1.315331101,27.70974731,7.590901375
1674,2.049800158,-0.765633702,10.10428619,-9.187398911,34.70765305,10.37862015
1675,1.976911545,-0.879807413,10.35661697,-9.293554306,40.82738876,11.3450098
1676,1.58945477,-0.69311434,9.955266953,-11.794631,46.19435883,10.55551147
1677,1.084625006,-0.931466818,9.486794472,-10.31008148,55.35411072,9.104496956
1678,0.552279294,-1.060688376,9.14850235,-10.88479996,62.77706909,9.511433601
1679,0.374515921,-0.766872764,8.68208313,-6.042434692,64.60402679,10.72548676
1680,-0.04054106,-0.473312229,9.205444336,-4.312820435,63.86096573,12.80994225
1681,0.267094374,-0.698307514,8.749228477,-5.385523319,58.66732407,12.52614689
1682,0.182934567,-0.753809273,8.199385643,-7.41561079,60.62301254,11.51457596
1683,-0.860924006,-1.000716686,7.644027233,-8.56654644,54.99993896,18.49720383
1684,-1.659384012,-0.844736159,9.261760712,-18.1099987,40.46487045,16.48067856
1685,-1.298312545,-0.391411811,8.539010048,-23.30240822,31.51693153,12.67792034
1686,-1.394417167,-0.867692709,9.049623489,-23.17487144,30.06908798,7.825810432
1687,-1.898865104,-1.028846025,8.456027031,-17.85392189,21.33606339,8.500668526
1688,-1.294295669,-1.34033823,9.430978775,-22.94265938,5.414310932,5.677904606
1689,-1.305926442,-1.064891338,9.207784653,-24.92666245,-10.11688805,3.837720633
1690,-0.850624084,-0.982340455,9.497121811,-25.99422073,-26.27649879,-0.787863135
1691,-0.532860816,-1.658700943,9.726016998,-35.61255264,-38.28013992,-3.213131666
1692,-0.704398751,-2.097652674,9.798342705,-32.08417892,-50.15784073,-6.2548666
1693,-0.603364825,-1.782979131,10.05613518,-30.73576927,-65.19998169,-10.82012749
1694,-0.432896316,-1.40477252,10.28323269,-32.90463638,-77.51437378,-13.54538155
1695,-0.11490114,-1.647191525,10.35962677,-32.52590179,-94.58847046,-13.94585991
1696,0.128891602,-2.479900599,10.76335335,-29.07287216,-109.674675,-15.7968359
1697,0.529965699,-2.954506636,10.88455582,-21.34906197,-128.5452271,-11.72731495
1698,1.777336597,-3.062950611,11.00780392,-8.448339462,-141.7677612,-12.42977333
1699,2.406163216,-2.991210461,11.34580898,7.559484482,-152.7196045,-12.04376316
1700,3.695009232,-3.729206324,11.85676765,22.57753563,-159.4676208,-14.77758884
1701,4.490383625,-3.661483049,12.13547516,33.13377762,-162.234787,-21.14178085
1702,4.986943722,-3.345941305,12.95305538,47.51512146,-164.6196442,-28.8936615
1703,5.315709591,-2.741650581,13.8020916,53.33156967,-166.3260345,-29.71894836
1704,5.948588371,-1.279727578,14.62585926,41.09483719,-166.9812164,-20.13400269
1705,7.461756706,-1.094166636,14.75512409,13.24701881,-158.9262085,-16.01294708
1706,8.575787544,-2.702362537,13.59146976,-14.95841026,-134.2500305,-17.96237564
1707,8.960753441,-3.031696796,11.34678078,-53.69784927,-93.74931335,-18.35144615
1708,9.541322708,-1.649665356,9.03093338,-71.51491547,-44.27176666,-11.30154514
1709,9.89794445,-2.544787407,9.241802216,-53.64295197,-1.167028904,1.846188426
1710,10.69345379,-3.716501236,9.653609276,-25.91834641,35.55931854,15.85746765
1711,11.32810974,-3.616115808,9.358368874,-14.31945038,69.35603333,28.53687096
1712,10.59951878,-2.897124529,7.6404109,0.169454262,104.9202881,28.95726776
1713,9.419835091,-2.293983459,5.800048828,21.9507618,143.1309204,21.03701019
1714,8.820116043,-1.540170074,4.832418919,36.1741066,162.6237946,20.06796074
1715,8.560935974,-1.201635957,4.130620956,34.32269669,177.2734375,27.87478638
1716,7.429663181,-1.011500478,2.907636166,17.09065628,192.624527,37.697052
1717,5.232073307,-1.11673975,2.21400547,11.9446106,200.3604889,39.72685623
1718,2.107004881,-0.059625961,1.79746294,11.67138672,212.4395294,39.55314255
1719,-1.731866241,0.975376427,2.844387293,6.639626026,223.7736053,43.63772202
1720,-2.32995677,-1.282402992,3.931864738,-0.419473082,231.8258514,57.32049942
1721,-1.120008707,-0.982242405,5.121910095,-32.78404617,245.180954,68.57281494
1722,-2.78105092,-0.448043704,6.710420132,-17.95198441,265.352356,61.9160881
1723,-4.258024216,-1.811984062,9.723108292,-8.62198925,242.441452,58.99578857
1724,-4.98807478,-2.559872627,10.17151928,-49.33256149,223.3267517,56.24243164
1725,-5.906633854,-2.141025543,6.308051586,-28.26209259,172.848877,48.95427322
1726,-4.561759472,-3.161683798,7.16437006,19.55588341,130.6819763,39.63129044
1727,-3.271682501,-1.765133023,8.075534821,15.83505917,101.3432999,31.25507927
1728,-3.572258711,-0.127208203,7.357868671,16.91895485,82.65238953,33.65638351
1729,-4.101993561,-1.240088105,8.355548859,18.95401764,64.12776947,29.49822044
1730,-4.891815662,-0.928945661,8.780795097,25.84279251,53.11157227,19.67195511
1731,-4.824011326,-0.848501146,9.742420197,33.44042969,44.15507889,7.615514278
1732,-4.632806778,-1.734179616,9.481133461,35.17472076,20.07195282,1.030865788
1733,-4.886888504,-2.688585997,9.4888134,32.88501358,-10.0413723,-3.461096287
1734,-4.671474457,-1.401812792,10.17373466,42.04628754,-39.83177948,-8.43881321
1735,-4.622103691,-0.894670308,11.35449314,44.13861084,-66.6313324,-20.7717247
1736,-3.548968554,-1.40927124,11.51983166,25.08122444,-91.48973083,-25.65200424
1737,-2.695985794,-1.036133766,11.14286804,19.28924179,-103.6768951,-28.44933701
1738,-1.822213531,-1.207542062,10.31254578,12.87293243,-112.8658371,-23.75927353
1739,-0.77597481,-2.612733126,10.11528683,18.76802826,-99.06877899,-20.71313477
1740,-0.586420655,-0.900728703,11.0127306,16.67141914,-106.3120117,-26.75473595
1741,-0.868159652,0.020997453,12.39766598,7.330795288,-128.7073822,-30.77939796
1742,0.336152852,-2.626739025,12.99823952,-3.820631981,-150.3805084,-31.99551201
1743,0.976042509,-4.723049641,13.35587215,3.485901117,-175.5221558,-31.14329338
1744,1.086349964,-3.605353117,12.15370274,4.195833206,-183.8270569,-34.71476364
1745,1.782947779,-2.158195496,11.97598743,-0.263149559,-176.8943176,-37.32481766
1746,3.401768684,-0.811997533,11.96351242,-29.82084846,-158.6652374,-32.35459518
1747,2.52924037,-0.986995459,11.56292725,-42.90212631,-154.5893707,-23.62438583
1748,1.886637568,-1.922185302,9.974039078,-35.59841537,-156.2030334,-25.62296677
1749,3.624166489,-0.773112953,9.380988121,-19.79727554,-145.6938019,-22.16938591
1750,4.033339024,-1.410351872,10.28947926,-20.63611221,-125.7839584,-17.2057209
1751,2.455382586,-2.479740381,9.666337967,-6.496051788,-114.9007645,-19.3811779
1752,4.025850773,-2.893134117,8.937497139,8.794784546,-106.6563797,-16.89346313
1753,4.259204865,-2.127385855,10.04332829,3.515975237,-94.66641235,-13.04450703
1754,3.844896317,-2.774114847,10.1727047,8.457453728,-77.99614716,-8.17442131
1755,2.501122475,-1.784978628,10.79605579,19.02590179,-77.22467041,0.52139008
1756,4.022037983,-0.900973916,10.0107584,9.575663567,-64.44954681,-4.712256908
1757,5.0925107,-1.09433949,10.47288322,7.034884453,-33.86180878,-5.485610008
1758,4.396517277,-1.625757933,10.9366312,-5.886174202,-20.6088562,-9.082427979
1759,4.008986473,-1.419379473,10.14078712,-7.164929867,-1.399005413,-15.28518867
1760,3.155097485,-1.408362389,10.65968227,-0.340303779,21.23825073,-9.85153389
1761,2.507323742,-2.184124708,9.282474518,-2.717137098,-5.709188461,-8.054722786
1762,3.839869261,-2.164557219,8.335842133,7.890779972,-20.83997345,-0.915693998
1763,4.027921677,-2.422905207,9.198137283,17.0927639,-14.5139761,8.140224457
1764,3.120475769,-1.755004525,9.659667969,5.067946434,-17.02470589,5.970192909
1765,2.961223364,-1.068711996,9.449022293,-5.904938698,-17.41431427,4.266165257
1766,4.623514652,-1.355902076,9.01762867,-17.25337601,-9.011007309,1.172147512
1767,4.833974838,-1.776128888,9.200842857,-19.6699295,6.027132511,2.045849562
1768,3.229390383,-1.320721507,9.129053116,-10.75008392,13.94260025,3.859370708
1769,2.06517601,-1.684984207,9.420166016,-4.08481741,6.986551285,-4.136003971
1770,2.372037172,-2.130162239,9.755255699,13.44631481,-5.677610397,-7.158281803
1771,4.631174564,-1.599326253,9.367540359,0.103340857,-1.049416661,-9.136652946
1772,4.023004055,-1.514912128,9.685586929,-0.0368951,3.797806263,-2.229636669
1773,2.959562063,-2.152958632,10.19207764,-13.71155834,-13.96622467,-0.316983193
1774,3.137771606,-2.350607872,9.894537926,-11.06579018,-24.80058479,-1.410085201
1775,4.118957996,-2.377201796,9.891237259,-8.728258133,-18.73628044,0.208455652
1776,3.815357685,-1.994905591,9.751039505,-1.083520651,-15.98981667,4.319310188
1777,3.65069747,-2.015478134,9.562038422,3.657606363,-17.4427166,2.739236832
1778,3.744534016,-2.448770285,9.66629982,0.526309967,-22.41464996,-3.383482456
1779,4.159658432,-2.558295727,9.687547684,4.648974895,-21.05089188,-2.147359133
1780,4.200228214,-2.147643805,9.649030685,7.492615223,-18.40144539,-2.490083218
1781,4.07800293,-1.941480994,9.43913269,14.01334286,-17.76372147,-5.62477684
1782,4.240865707,-2.082660675,9.322730064,18.83454704,-18.05719376,-8.070378304
1783,4.123964787,-1.934457183,9.378698349,16.67205048,-20.71041107,-8.31137085
1784,3.989449739,-1.401234746,9.559662819,13.09890556,-19.05148315,-8.812375069
1785,4.338385582,-1.216385365,9.327316284,16.73454094,-18.80883598,-8.063871384
1786,4.534306526,-1.380308151,9.279882431,20.50833511,-14.52581501,-5.415267467
1787,4.527842522,-1.473041296,9.524133682,11.79537201,-11.73694229,-6.308337688
1788,4.477653503,-1.997069836,9.36579895,7.907488346,-15.83540249,-4.367418766
1789,3.975622416,-1.831924677,9.590477943,14.21158314,-21.95047379,-5.736260414
1790,4.074860573,-1.198019862,9.431648254,17.30419159,-22.99813652,-6.898519993
1791,4.698625565,-0.796771348,9.430438042,16.78670883,-22.4543972,-3.419151545
1792,4.762087822,-0.987324059,9.614538193,8.697922707,-32.7035408,-2.119600534
1793,4.926169395,-1.50968504,9.259882927,5.72847271,-31.02079964,-3.698256254
1794,4.837481976,-1.282616496,8.960642815,8.800205231,-31.42709351,-5.119409084
1795,4.841181755,-1.01534152,8.888557434,12.71234989,-32.71208191,-1.588301659
1796,5.093478203,-1.015952945,9.244253159,8.319952965,-29.38503838,-1.142912745
1797,5.090177536,-1.113504171,9.378862381,0.053498711,-32.07925034,-2.176164865
1798,5.21075964,-1.125442147,9.190752029,-3.607355118,-28.61373711,-1.03188765
1799,5.08003521,-0.824462533,9.093377113,-2.665443897,-27.44799805,0.021610772
1800,5.105700016,-0.751664042,9.105784416,-2.978546143,-25.56153488,1.380546927
1801,5.366123199,-0.75201422,9.089611053,-8.048621178,-15.8759346,3.19491291
1802,5.431678772,-1.095042944,9.178679466,-11.61039925,-7.06248951,4.428803921
1803,5.101072788,-1.532299042,9.554450989,-18.80857277,-4.009456635,5.476534843
1804,4.908001423,-1.608752728,9.221936226,-24.46640778,1.741840363,2.156625986
1805,4.501567841,-1.389293075,8.711501122,-18.78882027,-3.46955204,1.048092246
1806,4.270778179,-1.271790743,8.43624115,-6.511366844,-9.80982399,5.044008732
1807,4.511095047,-1.651022673,8.824614525,-3.847296953,-2.497302532,4.625212669
1808,4.79585743,-1.957716584,9.272319794,-8.631302834,4.004450798,3.664940834
1809,4.84287262,-2.038603067,9.143713951,-8.169588089,13.13812828,2.265733242
1810,4.438326359,-1.805612922,8.842351913,4.392371655,17.27502251,2.336015224
1811,4.213476658,-1.426365256,9.364364624,12.76466942,18.53133965,2.244771481
1812,4.42957592,-1.176737309,9.662075043,10.37358761,17.19430923,4.521409988
1813,4.290761948,-1.791501999,9.426937103,12.29652882,17.61408043,2.666138887
1814,3.8146348,-2.261675596,9.404667854,15.0710907,20.38025665,-2.517055035
1815,3.980939627,-1.782662511,9.574308395,14.74005222,17.09153175,-1.716258645
1816,4.310269356,-0.806764245,9.62676239,12.79003239,12.9558363,2.793190241
1817,4.157655239,-0.662792802,9.584013939,10.62778664,11.07494736,6.843251228
1818,3.519642591,-1.652371883,9.778883934,10.90410423,10.10868931,6.819426537
1819,3.178453207,-1.893570423,9.371943474,9.721837044,13.63662815,7.822767735
1820,3.424157143,-1.095102668,9.019769669,9.517427444,10.6443491,10.72546387
1821,3.334714651,-0.693900585,9.170345306,15.02080154,10.20244312,8.048321724
1822,2.814613342,-0.534249485,9.259907722,20.69135857,12.4467802,3.472826958
1823,3.026413679,-0.43339324,9.412549019,5.344740391,1.154064298,13.50802517
1824,3.257860899,-0.198793426,8.783153534,-14.44744015,-6.548662663,25.43398476
1825,2.789735317,-0.875044107,6.989931583,-20.08003998,-15.91028881,34.51527786
1826,2.601820469,-1.372123003,6.739495277,-18.87478828,-21.20745468,35.22703171
1827,2.762809038,-1.425391316,7.042529583,-18.86553764,-19.25412178,32.91754913
1828,3.066795588,-1.117243648,7.696425915,-18.97040749,-15.34360218,30.91093636
1829,3.617770672,-1.290384412,7.457086086,-19.64388847,-9.986231804,28.16086197
1830,4.399674892,-0.686362147,6.833857059,-17.00970268,-18.3631115,26.08768654
1831,4.571660995,-0.151835874,7.526206493,-18.45126915,-19.992136,23.89534378
1832,4.982467651,0.013851102,6.993246078,-41.36778259,-24.59495544,19.07063675
1833,5.608013153,-0.871566117,7.347604752,-63.61964035,-18.0249958,12.96969128
1834,6.030593395,-1.657195449,7.76867485,-79.75249481,-6.491445065,11.8860836
1835,6.238712311,-2.079642057,8.375534058,-79.01873016,3.051341057,8.940779686
1836,6.406354427,-3.678052664,9.15431118,-68.40647125,5.169631481,-2.150401354
1837,6.769620419,-4.271088123,9.758343697,-47.34050369,3.561458588,-16.51741982
1838,7.271879673,-4.660020351,10.24680519,-30.83561325,-9.803868294,-25.11925125
1839,7.958393097,-2.982789993,8.684576988,-16.79441261,-30.90108681,-21.78687096
1840,9.962348938,-3.046130896,7.784804344,-8.578430176,-30.31855011,-22.29968643
1841,12.22146702,-4.148771763,8.163395882,-34.32833481,-3.550214052,-27.94526291
1842,14.33533955,-3.123529673,7.996430397,-50.57613373,11.11318874,-15.87435055
1843,15.11998749,-3.859699726,8.191282272,-31.82321358,35.24046707,-1.999804258
1844,14.31329918,-3.588582754,5.825208187,-10.1022644,52.71588135,2.734817266
1845,12.9349575,-1.727540135,4.119993687,27.67133904,47.94806671,14.11646748
1846,13.01365185,-1.994298935,3.379503727,35.81364822,48.47164154,23.55768776
1847,11.91531754,-2.737576723,4.927666187,34.79418945,90.75325775,34.7196312
1848,6.303071976,-3.832389832,-1.234012127,11.16486549,11.21885777,28.335886
1849,4.820297241,0.109976873,0.599386394,24.18152428,79.04728699,11.78258514
1850,4.302476406,1.018653035,9.054623604,-2.355625391,164.8827667,23.84900475
1851,0.905686021,-1.487939239,10.21280098,2.118748665,123.427124,36.27975845
1852,1.433326244,-8.02084446,9.071573257,14.87695122,73.0941925,31.85154915
1853,2.953310251,-4.485044956,8.478842735,13.94527531,33.44692993,15.53311729
1854,4.738391399,-1.775594592,9.068543434,8.295901299,7.644096851,9.307053566
1855,4.616109848,-2.222302675,10.30335045,-5.463820457,4.741625309,14.05195236
1856,3.955005646,-2.746231556,11.55916214,-16.5825634,11.84506607,18.14967346
1857,3.938355923,-3.742703915,10.10918522,-8.382443428,7.837642193,14.52534389
1858,1.956081986,-3.288753986,9.842272758,0.662504494,2.001152277,2.945300341
1859,0.784198463,-2.932984591,10.06848145,2.337422132,-8.616703033,-2.562692404
1860,1.119165301,-2.856463194,9.735539436,11.80744457,-24.36983681,-10.62458801
1861,2.270379066,-2.598618269,9.72005558,22.61627197,-37.99507523,-11.27028465
1862,3.183386564,-2.935986996,9.818441391,32.69871902,-41.35227966,-13.49039936
1863,2.912216425,-2.653513432,9.829269409,38.90647888,-37.16004944,-14.76349831
1864,3.885375738,-1.942015767,9.393327713,41.93848038,-30.24728394,-11.96847248
1865,3.834159851,-2.131317854,9.696547508,29.70106125,-37.29867554,-10.45411587
1866,2.951293945,-2.218703747,9.600036621,13.11099529,-42.45161819,-4.869546413
1867,3.208256245,-1.743838072,9.022806168,6.483908653,-38.08481598,-5.78004837
1868,4.967802525,-1.838734746,8.746113777,-2.192213535,-35.39037704,-0.576467574
1869,6.033292294,-2.72027874,8.976992607,-26.68203545,-26.66312027,6.594695091
1870,5.146312237,-2.92854619,8.433465958,-32.76174545,-5.856917381,6.276257038
1871,4.574206352,-1.947947979,7.404585838,-13.93173409,18.62535477,2.241813421
1872,4.718718052,-1.680288792,7.77914381,1.442835689,19.1053257,2.842251301
1873,5.161863327,-1.579218149,7.309542179,3.282009363,37.32538605,9.039568901
1874,4.860077858,-1.408156753,7.201375961,5.196325779,52.62916183,11.38270187
1875,4.381501198,-2.032672644,6.71105051,-5.623898983,67.24755859,12.37409019
1876,3.44385314,-1.521805763,6.842230797,-9.29204464,60.27800369,13.48101521
1877,2.86666131,-0.558363557,7.968078613,-5.124587536,44.60297775,9.406159401
1878,2.655697584,-2.196668148,9.730041504,-19.6017952,24.95422173,1.895602703
1879,2.104401827,-4.086573124,10.86471748,-33.97250748,-2.193973541,-4.008422852
1880,1.337331057,-3.192069292,11.08990288,-14.83633041,-54.88379288,-4.324157715
1881,1.709431887,-2.164402962,10.1129055,55.38329697,-105.3989716,-15.23326492
1882,3.023464203,-2.654164791,6.852974892,59.33724976,-144.0966492,-31.28808212
1883,5.106931686,-2.417500019,7.44748497,44.0368309,-175.2001801,-41.06216431
1884,6.456693172,-1.581365466,7.61357069,36.17767334,-195.1260681,-42.45276642
1885,7.594127655,-2.027048349,8.414880753,39.38168335,-202.6747284,-43.95656586
1886,7.954904556,-2.632036448,9.095705032,41.19937134,-207.9663849,-44.6734581
1887,8.039744377,-2.076838493,8.628360748,40.03784561,-216.7961426,-41.83049774
1888,7.833699703,-2.405262709,7.580506802,25.75532722,-214.0386658,-36.13914108
1889,6.849223137,-3.308573246,7.438092709,31.12884712,-208.4676819,-36.65571594
1890,7.361985207,-2.638475418,8.748666763,25.84436798,-221.3832397,-42.94699478
1891,6.856618881,-2.269791842,7.544984818,21.18957329,-226.4555664,-30.66456223
1892,6.210063934,-2.638527632,7.586027145,10.58684063,-215.3781128,-30.99657631
1893,5.723424435,-3.200797558,7.86835146,2.711959839,-185.3451691,-29.976717
1894,6.714477539,-2.197827339,7.157420635,16.59563255,-154.536026,-36.38415146
1895,7.184827328,-0.921689689,7.38185358,19.08356094,-115.8240128,-36.4858017
1896,7.259508133,0.654433548,6.420505524,18.31500816,-86.22386169,-27.00973892
1897,7.992166996,0.434825838,5.710071564,16.02077293,-49.56557846,-13.2700367
1898,8.467965126,0.357372224,5.629950047,-5.703250408,-29.69916534,-8.569705009
1899,8.649195671,-0.492883235,5.199771404,-13.90514469,2.166996002,-4.358887672
1900,8.700456619,-1.859445333,6.46902895,-31.48165703,28.2467823,-7.594214916
1901,8.430511475,-2.387631893,6.836792469,-45.42030716,52.55199432,-9.493177414
1902,8.496404648,-2.781119108,7.291755199,-43.01034546,65.79597473,2.227117777
1903,9.013895035,-2.955950975,5.815790653,-44.79706573,73.38852692,13.73020077
1904,9.922149658,-1.672471046,4.357689857,-39.50959778,119.549118,17.58721352
1905,8.909804344,-0.23803407,5.027139187,-56.58990097,166.8405609,23.3574295
1906,6.8057127,1.470027328,1.337075353,-78.92991638,166.7792816,36.46371841
1907,4.55717659,0.845094502,0.716279685,-22.74068642,193.1619873,49.4741745
1908,4.55197525,-0.208923861,2.884549379,-18.64681244,215.537262,55.30059433
1909,5.066304684,-1.494785428,4.228047371,-15.90557575,223.6320801,60.3081131
1910,5.077355385,-2.179694414,6.430264473,-6.44797039,225.9165649,68.10009003
1911,4.164049625,-1.458222866,6.477826595,12.16699219,220.5735321,64.57191467
1912,4.309998989,0.153949738,6.017900467,29.79894066,210.039978,53.93263245
1913,6.228729725,0.187964171,6.022333622,11.59258556,191.6157379,42.15901184
1914,6.329303265,-1.291601896,7.157041073,-3.308855534,180.9002533,38.52613831
1915,5.978460789,-1.151837707,8.259033203,6.149512768,173.5075836,41.97256851
1916,6.462899208,-0.854989827,8.84008503,15.63828659,165.9118042,41.28711319
1917,8.162340164,-2.005920887,8.532527924,-3.785815001,152.3312988,29.78956032
1918,9.559720993,-2.591760159,8.011061668,-19.67180252,131.9393463,31.20948029
1919,10.05049992,-1.682053447,9.155179024,-28.30256271,120.3921127,36.22167206
1920,10.82357025,-2.759655952,10.45442104,-23.20706558,114.2661209,31.12537384
1921,9.850144386,-4.3590765,10.95956039,-22.50733185,106.2303391,29.37186241
1922,8.180689812,-3.810360909,10.37238121,-11.69324017,81.16602325,16.2616787
1923,6.677680016,-0.936090827,8.923911095,31.30147743,62.87302399,9.29378891
1924,6.187710285,0.14748238,6.90585041,45.42301559,28.93289948,10.03971291
1925,6.083780766,-1.922523618,5.366042614,3.556269407,1.710411668,17.70689011
1926,4.816947937,-3.476764917,5.493224144,-18.95054054,21.31149673,23.09464836
1927,2.055608511,-2.931128263,10.37911034,-24.41837883,104.3757553,17.01713753
1928,0.643866897,-3.467408895,12.47369862,-44.24414063,107.7229843,6.684524536
1929,0.811228037,-5.320919037,11.27687359,-58.82552338,115.333992,16.4723568
1930,-0.274190158,-5.13085413,8.709192276,21.93572617,107.2093201,19.29248238
1931,0.659133613,-2.846472979,8.715504646,48.93500519,86.84880066,0.296560615
1932,2.008584738,-0.028187722,7.807811737,43.06579971,67.66600037,2.411150932
1933,0.091462485,-0.762906492,7.681859493,47.62041855,57.19829559,22.35014915
1934,-1.121008039,-2.946865559,10.48917675,25.94838905,50.10679245,18.82371902
1935,-2.45858717,-2.081464767,10.38776398,1.491818666,50.09703827,5.122989655
1936,-1.951448679,-1.943423867,8.963955879,-3.593626499,42.01490784,9.801281929
1937,-1.535976171,-1.670121551,8.529939651,-11.02735424,22.20150185,18.91458702
1938,-2.228134155,-1.718992352,8.41734314,-22.76584053,8.437162399,5.518716335
1939,-1.601590633,-2.715415239,9.043694496,-15.63735676,-2.637348652,6.069063187
1940,-1.418587565,-2.905631542,9.867046356,-8.213242531,-9.881512642,2.322938681
1941,-1.637637496,-2.137045622,9.991954803,2.971171141,-14.29158783,-1.808347464
1942,-1.163143992,-2.810023308,10.3191576,-2.218044996,-23.62114906,-5.779421329
1943,-1.077728868,-3.545680761,10.65627193,-8.368087769,-30.80089188,-12.5637331
1944,-1.269035935,-3.125228405,10.10764313,-12.43241692,-47.54373169,-14.49993324
1945,-0.827620387,-3.434546947,11.08293533,-13.04414368,-51.58530045,-11.39650154
1946,-0.597596526,-1.645098567,10.67167282,-3.618052483,-51.32777405,-9.312540054
1947,-0.454415321,-1.876382351,10.90760803,0.863189638,-55.15042114,-10.40535355
1948,-0.136780053,-3.033928871,10.66369915,-4.002028942,-62.63350296,-12.71583748
1949,0.753738046,-3.296119928,10.57421398,-3.87925005,-67.62322235,-16.2875061
1950,1.219967723,-3.677664042,10.28525352,-5.216961861,-63.11111069,-14.24043655
1951,1.085235119,-3.2059865,10.51797009,-3.260214806,-56.31069565,-12.0969553
1952,0.43915239,-2.780304193,11.16909218,-6.115834236,-55.7976532,-14.20015526
1953,0.713514686,-3.231556177,11.05500603,-10.35510349,-57.57254791,-13.26269341
1954,1.142127275,-3.48086381,10.84622097,-7.279020786,-59.14130402,-13.89179516
1955,1.721278429,-3.25245595,11.35738754,-7.327591896,-47.73800278,-16.73810387
1956,1.511232138,-2.802751064,11.11298466,-0.082691357,-47.6216011,-17.68502426
1957,1.462545991,-3.014461279,10.75198555,2.253296614,-54.92950058,-14.8409729
1958,1.817958117,-3.32153368,10.6170187,-7.499669075,-61.55746841,-12.07151127
1959,1.925191879,-3.542205095,10.35640907,-10.15290737,-68.52899933,-7.637978554
1960,1.964854479,-3.387395859,10.2175684,-6.860299587,-73.01604462,-5.84943676
1961,2.29815793,-2.972150564,10.00553799,-9.641201019,-75.85458374,-4.00588274
1962,3.2885952,-2.902143478,9.79339695,-13.45012951,-67.26785278,-2.073958635
1963,4.039868832,-3.127285957,9.842387199,-14.74573135,-55.02777481,1.716051459
1964,3.876760721,-3.42398715,10.26039219,-16.84265137,-47.60060501,3.036265373
1965,3.742316484,-3.055071115,10.2684536,-17.44626427,-45.99568558,1.194400668
1966,4.208774567,-3.700362206,10.10467339,-10.98496532,-34.97880554,2.055511713
1967,4.43072176,-4.159863472,9.850993156,-9.005810738,-19.34627533,3.892989397
1968,4.226616859,-3.637995958,8.672125816,-6.769480228,-8.820611,9.160511017
1969,3.953552008,-3.915139675,8.408541679,-2.550455332,-0.564023733,8.76154232
1970,4.579330444,-3.696381807,8.789593697,10.72484684,15.90724945,4.850232601
1971,4.351480961,-2.435936451,9.540898323,31.76762772,29.28853035,6.709733963
1972,4.014563084,-2.252320528,9.231228828,31.91942024,10.79753494,12.78566647
1973,4.002163887,-2.767993212,8.790540695,32.79340363,25.04511452,6.067115307
1974,4.692208767,-2.008687258,9.385829926,34.42346954,37.67092133,5.11159277
1975,4.228337765,-1.107488632,9.725331306,30.91360474,39.8895874,3.17128396
1976,3.798623323,-2.096685886,9.314600945,25.86081505,17.64685822,-2.115411282
1977,3.285354376,-3.552013159,9.4532938,19.41191101,19.34332085,-3.928307295
1978,2.735458374,-2.513530731,11.15285778,35.01742935,6.493573666,-7.717411995
1979,2.617253542,-3.278910875,12.29637909,68.99693298,-34.82376862,-16.75271606
1980,2.421752214,-2.788651943,11.72204399,81.5111618,-61.72713852,-27.69295311
1981,2.176285744,0.194580182,14.30283356,44.03773117,-96.19047546,-31.03100204
1982,2.506510735,0.093734309,13.97665405,-15.53651524,-144.5287323,-34.48905945
1983,4.238305092,-0.394171894,8.238910675,0.901941955,-186.5675964,-23.42149544
1984,4.946492195,-0.352393687,7.108450413,7.219192505,-186.6701965,-22.01378441
1985,6.695976734,-1.096469045,5.645251751,-10.6070261,-204.5085602,-23.578022
1986,7.906968594,-2.00302577,6.814694881,-19.63093185,-222.9950714,-29.41747093
1987,8.724865913,-2.69201088,7.263645649,-17.14073753,-228.4206238,-39.87025452
1988,9.071766853,-2.844853163,7.915742397,8.081688881,-219.5839233,-43.07148743
1989,8.097842216,-2.137692928,8.546005249,36.66815948,-228.3117523,-41.95924759
1990,7.699578285,-2.106379509,9.830791473,29.70713234,-246.9854584,-47.40929794
1991,7.779099941,-2.634371281,8.840659142,24.69201279,-253.6569214,-43.56164551
1992,7.045461655,-1.854479194,7.803605556,35.93787766,-250.8960266,-33.7016449
1993,6.660860062,-1.562094927,7.031959534,25.80426216,-238.3666687,-27.67577553
1994,7.976778507,-2.006791592,5.872803688,23.18179321,-214.2494812,-23.87794113
1995,8.63187027,-3.439329147,6.240084648,39.09538269,-169.0462341,-18.43751335
1996,8.928212166,-2.960779667,7.156816959,44.51815796,-124.5312729,-18.56179047
1997,8.511659622,-1.856881499,6.994699001,44.86309052,-86.92853546,-18.99833107
1998,8.19875145,-1.331546068,6.72191906,38.81377029,-48.56655121,-18.06599045
1999,8.755059242,-1.191132903,6.255910397,13.06412888,-20.73014641,-19.34513283
2000,8.635658264,-0.482557744,6.492188454,4.1225667,-8.512260437,-14.40171528
2001,8.153097153,-1.076146364,6.171972752,-14.96743774,3.602782726,-10.88505173
2002,8.207201958,-1.60898757,5.397127628,-32.35998917,30.42674828,-4.600764751
2003,9.242948532,-1.779786229,4.328798771,-36.3411026,51.22560883,3.722429276
2004,8.564001083,-1.508327723,3.809124231,-55.91244507,84.45207214,11.03938007
2005,7.169694901,0.143528044,0.851057589,-64.57181549,109.4654236,26.40588951
2006,6.112985134,0.7873348,0.253237098,-30.98615456,129.2911224,31.33111954
2007,4.029324532,0.879209638,1.283880711,-13.80041599,154.2240448,27.89279938
2008,4.038992405,1.388587475,2.66223526,-19.82424355,166.7708435,27.97878456
2009,5.238973618,1.38111937,3.324017048,-20.09850311,175.5511017,33.54515839
2010,5.118182182,0.166629955,3.553982735,-28.72757149,176.8831329,43.20796967
2011,4.412947178,-1.535945296,3.18616271,-26.31886292,181.9917297,40.23013306
2012,4.444601059,-0.785587728,2.973153114,-12.12046146,184.7571106,31.03128815
2013,5.557435989,-0.335639685,4.205210686,8.917975426,182.1481171,23.04047585
2014,6.392401695,-0.182273239,5.534730434,9.243902206,172.602356,22.92445755
2015,6.620947361,-0.88036859,6.784664631,0.801873207,159.9302673,24.75851631
2016,6.793649673,-1.024507284,8.290857315,-5.758781433,150.6869354,20.88209343
2017,6.854073524,-0.491395116,9.187468529,-6.059930801,152.6356659,16.50065804
2018,8.010187149,0.422842234,8.471054077,-2.155696154,149.1617279,8.131307602
2019,9.819740295,-0.149790004,8.508475304,-11.91786098,141.0276642,11.81878948
2020,9.564923286,-2.435539246,7.533424377,-30.39329338,111.7169418,20.865448
2021,9.686421394,-3.168813705,5.905337334,-33.25812912,89.35137177,22.91911697
2022,12.57199764,-2.776252747,8.647632599,-42.96772766,110.761055,23.08959961
2023,14.45877743,-1.694406748,10.76744556,-67.26118469,122.890007,28.42876816
2024,11.96547127,-2.367381811,9.3552742,-59.99914169,93.90029907,32.74225235
2025,8.443172455,-3.593746185,8.695430756,6.221561432,53.52525711,34.65530396
2026,7.459251404,-2.720947027,7.348876953,42.01595688,20.78787994,30.91624069
2027,7.369216442,-0.335950315,4.382739067,44.46587372,15.01163197,26.50076294
2028,6.65043211,-1.609532475,3.909605742,30.36869049,23.13578224,37.47005081
2029,4.949704647,-2.476691246,7.141318798,8.247847557,83.71252441,34.60068512
2030,2.118757725,-3.16460681,10.76177025,2.040445089,112.7108841,32.96714401
2031,0.626118362,-3.790384531,14.17827606,-42.1580925,128.6636353,21.23446846
2032,1.5127033,-3.709836245,9.801084518,15.80895424,94.10848236,16.69970703
2033,4.169546127,-3.704203844,10.13114738,48.58822632,92.81036377,17.1310463
2034,2.936728716,0.070847854,7.282375336,56.35577774,83.70016479,17.2970047
2035,1.149753332,-0.757714748,9.865569115,42.86532211,79.87013245,23.25930786
2036,0.02740512,-2.29729414,10.03548813,17.63251305,71.11441803,24.09721756
2037,1.12742722,-3.195553064,10.78905773,15.51019382,69.77784729,21.16069412
2038,0.562133789,-1.745135307,9.451187134,24.37134552,73.13859558,29.30075455
2039,-1.52910912,-0.652459323,9.387450218,27.63477325,49.24556351,22.54161072
2040,-2.31350708,-0.338616163,8.663765907,24.04536629,36.51297379,7.090778828
2041,-1.221015453,-0.344634235,8.700880051,24.16709137,26.11780357,-2.142678499
2042,-0.018744513,-0.132188797,8.975972176,14.53180122,20.7794838,1.119130135
2043,-0.907449007,-0.587804258,10.1272192,3.767700195,9.231339455,5.812311649
2044,-0.744404793,-0.659356296,9.844862938,-4.590615749,2.211445332,1.404619694
2045,-0.393362969,-1.058389664,10.47434044,1.370298982,-8.11515522,-1.087528229
2046,-0.349816382,-0.823793471,10.0948801,7.620853901,-20.19209862,-1.281495094
2047,-1.075433493,-1.064043283,10.35629082,-8.496086121,-28.66271782,-0.945207596
2048,-0.554067075,-1.256374717,9.997667313,-20.59817123,-36.23197937,-2.513338804
2049,0.92984885,-2.009581566,10.35215855,-20.80104256,-32.33626556,-3.977775812
2050,1.416866779,-1.804309249,10.92040157,-12.1058569,-27.48761177,-4.114501476
2051,0.547219634,-1.742411733,10.90250587,-13.54322243,-27.30598259,-5.972248554
2052,-0.081500679,-1.967040896,10.61935043,-7.279842854,-35.83424759,-5.386286259
2053,-0.065111026,-1.799508095,10.48842144,-9.91774559,-42.0683403,-6.619550705
2054,1.220458269,-1.605578423,10.22315311,-12.59473896,-45.37121964,-3.247145891
2055,1.112105846,-1.722350717,10.4151926,-18.77646255,-40.30919647,-2.582924128
2056,0.574213982,-2.35927844,10.95921993,-24.52599335,-39.36547852,-4.248135567
2057,1.067126155,-2.243932962,11.0013504,-20.06547165,-41.64593887,-8.397553444
2058,1.339696407,-1.838648677,10.81704521,-6.800361156,-48.85223389,-10.98019886
2059,1.367147446,-1.51677072,10.59776592,2.867060423,-54.92379761,-12.86288166
2060,1.589095354,-1.610283136,10.58020306,2.578136683,-58.83044052,-10.30104542
2061,1.683289647,-2.0268116,10.68853092,-6.005935192,-60.13635254,-6.722715378
2062,2.216032505,-2.511856318,10.53505039,-9.229813576,-63.01311493,-9.937322617
2063,2.908577204,-2.757454157,10.57128811,-5.9364748,-60.08760452,-12.12448215
2064,2.839729548,-2.482144356,10.53613567,-5.383045673,-56.61739731,-10.79896641
2065,2.988814354,-2.122612715,10.68704033,-8.244060516,-49.74681091,-9.00184536
2066,3.432661533,-2.649096489,10.74529552,-13.43447876,-37.92839432,-7.130604744
2067,3.633159399,-3.223092794,10.41720963,-16.06080437,-25.97384644,-0.544579029
2068,3.502339125,-2.082683802,9.851838112,-8.412385941,-22.32310677,2.959079504
2069,3.526316881,-1.476413012,9.51925087,-3.198081017,-14.64861965,1.619588375
2070,4.02063036,-2.728054523,9.766389847,-6.357086182,-0.861893117,1.205826879
2071,4.122010231,-2.304504633,9.897516251,-7.924580097,18.39582634,0.16564396
2072,3.475538492,-0.717273712,9.82239151,-11.36527157,29.17505455,-0.575602591
2073,3.327851057,-1.834836006,9.36208725,-19.93567085,29.97857857,3.845181465
2074,3.252797842,-3.139116049,9.279500008,-16.69096184,21.96762085,7.933294773
2075,3.637980461,-3.343026161,9.486091614,-12.45662308,18.24539375,12.25557041
2076,3.365544558,-3.439693451,10.05238247,1.106030583,28.37489891,11.78904629
2077,3.033194304,-2.517086983,10.28931808,8.098751068,27.2069416,-1.353468418
2078,2.460703611,-2.199062347,10.44018173,-5.755284309,17.70249367,-7.368118763
2079,1.747045398,-2.754960775,10.67918587,5.668855667,-20.96139908,4.290813446
2080,1.305896282,-3.225830078,11.06103325,-7.374692917,-39.14624786,1.875878215
2081,1.327493072,-2.663013935,10.89882088,12.13995361,-79.53414917,-11.53793144
2082,1.806749701,-2.719396353,11.1727438,22.09337425,-113.1831512,-20.58236122
2083,3.045470476,-1.645875454,8.547195435,47.09420776,-153.6788177,-26.48788071
2084,4.926537514,-0.779547751,7.77377224,66.3921051,-173.0966797,-24.48994064
2085,6.006435871,-0.583852768,7.329020977,46.22404861,-176.6381989,-21.47076416
2086,6.220425129,-0.24630776,7.622983932,17.33228874,-184.0462341,-15.07703972
2087,7.299069881,0.146974355,7.039306164,-6.99728775,-191.2947235,-16.97909927
2088,8.220360756,-1.813111782,7.535651207,-18.5250988,-195.9627533,-25.65627098
2089,8.61767292,-2.846468687,7.883142471,-13.71319866,-203.0345612,-32.85660553
2090,9.033679962,-2.029604673,8.628040314,-9.774330139,-218.9064636,-37.00571442
2091,8.389205933,-1.39943707,8.293557167,-11.11102867,-227.3074646,-32.99332428
2092,8.128172874,-2.43670845,7.977283955,-12.30642223,-225.3058472,-34.4601593
2093,7.624557495,-3.734186649,8.197460175,-12.98382187,-218.8770142,-35.03341293
2094,6.975025177,-2.809812784,9.410140991,-5.736403942,-208.4254456,-33.12269211
2095,5.729045391,-2.039112568,8.480016708,-6.995649815,-197.361969,-33.1758461
2096,6.176623344,-2.282006502,7.576397419,-17.94088364,-176.4669342,-32.77854538
2097,6.902683258,-3.229109764,6.698433876,-22.4131813,-148.6419678,-31.84106445
2098,7.103964329,-3.777071476,5.53630209,-15.69746494,-116.22966,-34.02996445
2099,7.396511078,-2.615453005,4.799287319,-1.40166676,-79.5125351,-35.65351105
2100,7.898569107,-1.874551058,4.703765392,6.53107357,-45.73577118,-31.91906548
2101,7.609004498,-0.977045894,4.75749445,7.837857246,-11.75020123,-22.78645706
2102,7.83838892,-0.960401297,4.986393452,5.861513615,12.9961834,-15.22873688
2103,7.863081455,-1.232581496,4.925058365,0.466350496,22.27728462,-6.419297695
2104,7.68858099,-1.609035492,4.989162922,-1.582767367,29.36896324,6.052344322
2105,8.876358032,-1.622748494,4.990874767,-7.948079586,48.57110596,15.56625938
2106,8.279523849,-1.688704371,5.069830894,-17.62317276,68.02228546,19.9315815
2107,7.67104435,-1.073173881,3.046533108,-28.72317886,93.9756546,20.7559433
2108,7.559122086,-0.013287804,2.076512098,-24.40165138,115.6996078,29.21230698
2109,6.82134676,0.891438603,2.245004416,-9.530563354,136.0856323,40.68133545
2110,6.25697422,0.771403968,3.112872601,-7.086046219,155.1682739,44.03413773
2111,5.769826412,-0.258259892,3.952070713,-7.698940754,168.7582703,48.30857468
2112,5.433305264,-0.699878693,5.134091377,-4.642374516,182.405777,57.24982834
2113,5.64094305,0.283290893,5.311266899,-9.247158051,190.1359711,58.85636902
2114,5.594071865,-0.162433669,5.544084072,-17.98763275,194.2179565,59.76127243
2115,5.427575111,-1.270630121,5.611451626,-15.79551601,189.8991699,60.72750092
2116,5.758399963,-2.374290466,6.919846058,-14.92892361,187.6787262,56.5104866
2117,6.074537277,-1.682519794,7.308642387,-6.295734406,177.014679,50.84616852
2118,6.379773617,-0.703742802,8.288210869,-4.290082455,168.3473206,41.55688477
2119,7.513819218,-1.52056396,8.375358582,-10.72981071,171.3129425,31.05531311
2120,8.612041473,-2.484550238,7.496033669,-22.66706467,180.4070282,33.07051086
2121,7.951824665,-3.417273521,7.636246204,-3.737051487,175.1134491,27.94722939
2122,5.840766907,-4.141664982,7.872215271,40.56108856,139.1438293,25.7965107
2123,6.357628822,-4.601297855,9.489060402,38.39283371,107.0783005,25.25561905
2124,8.630943298,-3.333785534,10.23278713,9.131546021,92.21822357,30.00801659
2125,11.06125069,-3.541420698,11.01961803,-24.05814171,84.67823792,27.22182083
2126,10.5818224,-3.53097105,10.29074383,-44.07859039,58.77784348,21.02849579
2127,8.838115692,-3.646046162,8.825888634,-8.417199135,35.01602554,17.93446541
2128,8.708220482,-2.12728548,9.057234764,7.548881531,22.68679047,11.60459805
2129,9.109531403,-0.084886216,7.357447624,11.85467529,25.60061646,7.904634476
2130,8.13835907,-1.296153903,6.38572073,2.799413443,10.6093998,14.69784451
2131,6.956446648,-3.902038574,5.521410465,0.445540637,6.881428242,27.40194702
2132,5.678094387,-4.887388229,9.701034546,-23.10154724,57.4103241,27.5109024
2133,2.053044081,-2.698360205,10.71534824,-38.26364899,61.2936821,29.65939713
2134,-1.378394008,0.504537642,7.834882259,-29.60917473,39.61580658,27.60579872
2135,-0.890199304,-2.16170001,9.035032272,4.429278374,44.76408386,26.40679741
2136,1.908904076,-6.715366364,9.53146553,5.922943115,46.07332611,24.56823349
2137,4.311865807,-5.551046371,9.501383781,28.51303864,39.29396057,25.14989853
2138,3.175387859,-1.129133582,8.953023911,41.7311554,43.13528824,19.35894394
2139,1.726830363,-0.659476936,11.21476078,40.70980453,56.26147461,16.69814873
2140,0.35721916,-1.882018805,12.01067638,38.54093552,38.22500229,16.12513733
2141,-0.344813257,-2.28380847,11.16571903,43.95906067,34.89862442,6.45916605
2142,0.166861668,-2.05688262,10.39500523,31.96834183,29.2041893,-10.05582714
2143,0.909622431,-1.641030908,9.385400772,36.08926392,28.35842133,-6.693891048
2144,0.177734196,-1.706880212,9.120371819,30.62644577,11.43305874,2.548197746
2145,-0.141848028,-3.024716139,9.788719177,20.24184036,-1.119481325,-2.253741026
2146,0.222505152,-2.876130104,10.86314487,5.469534874,0.258464187,-4.672947884
2147,-0.152790591,-1.705969214,10.01156712,-0.380130917,-7.371771336,-3.182186127
2148,-0.305597603,-1.819787145,10.40171146,6.487442017,-16.90054703,-4.246809006
2149,0.852408171,-1.486529589,9.566486359,5.578531265,-27.32413673,-1.674242496
2150,1.133383989,-1.861424804,9.61046505,-2.529812336,-29.2621727,1.348480701
2151,0.175882757,-2.91164422,9.807367325,-9.545611382,-26.42564392,1.890484929
2152,0.514960766,-3.082415819,10.43609524,-8.924992561,-22.07943344,-1.692541718
2153,1.739094257,-2.812648296,10.5164032,-8.175513268,-16.96544647,-2.649963856
2154,1.801474571,-2.48203826,10.86370182,-7.435214996,-15.92920303,-4.74499464
2155,1.175721407,-2.554212093,10.59522343,-2.179643393,-18.36850357,-5.302859783
2156,0.994703829,-3.014979124,10.84631634,3.916925669,-23.60283852,-4.845496655
2157,1.418670893,-3.193945169,10.66324329,13.98256874,-28.85916901,-5.860693932
2158,1.901253462,-2.916153669,10.43510818,14.85204887,-28.37982368,-9.032494545
2159,1.692912817,-2.324631453,10.14544392,18.15781021,-28.19373512,-7.74752903
2160,1.533223152,-2.120341301,10.21223259,19.27850342,-26.01500893,-6.95537281
2161,2.167569637,-2.0228827,10.46373463,19.7247982,-19.12854004,-4.63463068
2162,2.104499578,-1.639248013,10.44090652,10.0633297,-19.14834213,-2.984614372
2163,1.41851747,-1.204004288,9.889438629,-2.062146664,-23.22274971,2.072936058
2164,0.763280988,-1.947305799,9.686416626,-7.19000721,-27.81237984,8.418645859
2165,1.642357945,-2.446305275,10.20013046,-7.793087006,-29.99090385,3.594069004
2166,2.577524185,-2.334709167,10.33062458,-8.422053337,-39.09899139,-0.979819357
2167,3.16070199,-1.315557241,9.441574097,-8.892450333,-35.55709839,-1.213752985
2168,2.760333538,-1.178255796,9.025811195,-3.271720171,-22.57318878,1.696978807
2169,2.755117416,-1.908754468,9.606212616,-14.01196575,-18.64559555,2.904428005
2170,3.365218878,-2.840959311,9.426074028,-16.80757141,-10.6173315,6.088300705
2171,3.417360544,-2.868801594,9.588022232,-8.49252224,-1.195345283,6.524037838
2172,3.309294701,-1.814650059,9.746436119,-9.364789963,-5.478303432,5.937007904
2173,3.164520502,-2.124352217,9.392027855,-5.086056709,-7.726663589,5.350872517
2174,2.732500315,-2.487276793,9.18873024,-0.88778764,-7.096270561,7.508961678
2175,3.128264666,-2.509555101,8.427998543,13.12211132,-7.326559544,8.181031227
2176,3.192476988,-1.808529735,8.269079208,33.28194809,-1.086597443,3.124512434
2177,3.284568548,-2.182390451,10.52247334,29.84640312,-0.781535625,-4.568116665
2178,3.063106537,-4.71102047,11.62139225,19.6016655,-2.807207584,-7.769804001
2179,1.731860161,-3.69946146,12.39186001,13.31073475,-23.04729652,-12.99672794
2180,1.376166463,-0.364438087,12.30574417,22.14246559,-70.08216858,-22.23871422
2181,2.568949223,-1.086265326,12.06338692,10.71306324,-125.3090439,-18.41423416
2182,2.558175564,-2.805553198,10.12004089,-3.884003401,-170.3079834,-15.80553818
2183,3.608846426,-1.050700068,9.085393906,-17.75174141,-181.2983093,-24.45405388
2184,4.887346745,0.017637759,8.066833496,-27.00922203,-203.7809448,-34.87252808
2185,6.026077271,-1.965943813,7.371864319,-32.17422104,-242.7259369,-35.24552536
2186,7.930960178,-3.844927788,5.386844635,-20.62716293,-256.4178772,-36.17992401
2187,9.46846962,-2.968939304,5.098550797,-4.928812027,-243.6842957,-37.77463913
2188,10.23433113,-0.806215644,6.636071205,-11.64645195,-230.9941254,-36.84975433
2189,9.763692856,-1.489863992,7.75817585,-32.09769821,-220.7251282,-36.23290634
2190,8.678808212,-3.542209148,8.948364258,-36.52592468,-201.9807281,-36.7986412
2191,8.062402725,-2.943014145,9.598027229,-6.206568718,-203.1861115,-49.25489044
2192,7.35091114,-2.14708519,9.022683144,6.112499237,-199.6112518,-46.2972374
2193,6.341957092,-2.157931089,8.48843956,3.987069607,-183.64505,-41.33186722
2194,6.908677101,-2.463228226,7.987718582,6.106266975,-169.0918427,-34.21198273
2195,7.247659206,-2.859129667,7.345161915,3.689055204,-148.383255,-26.41702843
2196,7.521239758,-2.956917524,6.676252365,-2.28278923,-120.6715622,-23.18214989
2197,7.784347534,-1.780652165,6.400371552,5.722245693,-96.66091156,-19.11778259
2198,7.770107269,-1.451337695,5.57269001,13.2023468,-70.71208191,-14.4916172
2199,7.831121445,-1.340095878,5.595807552,9.044999123,-41.32855606,-10.04416466
2200,8.828383446,-1.066403151,5.954810143,-0.278039038,-19.11145401,-5.225548744
2201,8.458880424,-1.175248027,5.762644291,3.356359005,2.203569651,0.265405238
2202,8.441563606,-2.235069275,5.680976868,-16.40318108,20.73351097,3.313939095
2203,8.564725876,-1.828408957,5.001265526,-25.24750137,36.35181427,3.748431444
2204,8.833489418,-1.21891284,5.333995819,-30.17514801,62.75959015,7.667159081
2205,8.787603378,-0.453745455,4.321093559,-59.77624512,93.99645233,18.55507851
2206,7.868003845,1.153960109,1.509063959,-97.57118988,122.9689484,26.94374657
2207,6.499751091,1.308379769,0.985369921,-76.57043457,143.6603088,39.80167007
2208,5.05452013,-0.67731297,1.899043918,-61.57884216,166.771698,47.2794342
2209,4.486145496,-1.620948792,3.135409355,-50.66101456,176.4551544,53.12887573
2210,4.887573242,-1.951918006,4.488358974,-36.89364243,183.2563171,62.44194412
2211,5.041436672,-2.296355724,4.620324612,-31.20764351,188.2602997,65.96899414
2212,5.073399067,-2.690927982,5.172661781,-17.75581551,191.4584351,63.38722992
2213,5.457680225,-3.116371632,5.743828297,-4.232351303,187.5110016,54.73030472
2214,5.453623772,-2.523710966,5.288797379,20.00723457,177.4802399,52.22803879
2215,6.011945248,-1.596618176,5.989357948,24.88396263,166.3931427,47.39263535
2216,7.072428703,-1.282511473,6.291178226,13.11274338,161.6235962,43.16836548
2217,8.087532043,-2.199183464,6.91639185,-16.54428673,171.4514008,40.10782242
2218,8.532716751,-3.308549404,7.612605572,-30.79236794,186.0962677,42.69271851
2219,7.715147495,-3.574748039,8.739757538,-20.79096985,190.4568176,35.45124054
2220,6.733323097,-3.3864429,8.976900101,-10.97042465,177.0218658,21.85792542
2221,6.925236702,-4.253954887,8.595239639,1.254386783,140.3296814,16.23100471
2222,8.861668587,-5.202319622,9.990180016,2.22338295,106.5609283,19.34331131
2223,11.0634737,-5.364875793,10.16673946,-15.4717598,91.2899704,23.85056496
2224,10.95161819,-3.844331503,9.573227882,-26.22393417,85.02124786,22.66790771
2225,8.544641495,-3.073404789,9.119345665,-32.55101013,82.29710388,20.99308014
2226,7.843630791,-3.010148764,9.058403015,-14.26711559,61.91069412,14.71328831
2227,8.040100098,-2.492323637,6.316498756,30.71935654,30.75448418,12.54583645
2228,8.492676735,-3.982695341,4.994503021,42.65127945,18.76494026,16.87258148
2229,6.914653301,-4.386227608,5.353952885,22.70709419,29.98010063,24.23706627
2230,4.145911694,-4.054996967,8.609359741,18.77975082,63.30910492,29.14997101
2231,1.17075491,-2.245942831,6.482913494,0.406830043,49.95659637,22.7673378
2232,-1.258268595,-0.744677067,7.545415878,16.70130348,69.12528229,31.72590446
2233,-1.318164945,-5.839007854,11.99304581,-18.54644012,95.1049118,24.78689194
2234,0.358523965,-7.554692745,10.60929394,-5.356215477,82.55467987,22.51483154
2235,1.959706306,-5.064053535,9.983823776,44.17034149,67.01911163,12.72782898
2236,2.034986734,-0.925429523,9.417573929,64.88929749,56.52241135,1.755149841
2237,0.749995887,-0.667485476,9.972420692,58.72156906,41.82841492,5.029587269
2238,-0.346017212,-2.963199139,10.29987335,55.18757248,36.28094482,4.661973953
2239,-0.699173868,-3.006373167,9.870272636,77.87467957,18.40546417,1.528158665
2240,-0.828718543,-1.444463372,9.233505249,66.53710938,3.651577473,8.484284401
2241,-1.178750038,-1.010687232,8.25267601,31.4085598,0.400795668,15.86228848
2242,-0.702314675,-0.744402885,9.170063972,-5.970438004,0.715727925,11.26373386
2243,-1.39261353,-1.291750669,9.677445412,-22.44255257,-11.48071384,3.116630793
2244,-0.383865952,-1.096344709,9.836606026,-23.0063591,-22.73139191,2.428022385
2245,0.79934752,-0.712921441,8.947548866,-6.408504486,-21.81201553,9.866770744
2246,-0.311529517,-1.829691172,9.600012779,1.930221081,-19.593853,12.49880791
2247,0.073649481,-2.158385515,10.01977539,9.441672325,-23.69246483,17.0654583
2248,-0.328124076,-3.162877083,10.59509945,4.084127903,-23.31180382,11.64935684
2249,-0.700393319,-2.999430895,10.8423357,-5.892262459,-47.34893417,4.927635193
2250,-0.388755977,-2.723503113,11.35804081,2.008001804,-57.89072418,3.266201735
2251,0.647384226,-2.653733492,11.23178196,5.439078808,-66.92995453,5.544438362
2252,0.562441349,-2.681311131,10.07261562,16.44309616,-89.18299103,9.590141296
2253,1.360494256,-3.353708982,9.664978981,41.92565918,-84.03534698,3.612239599
2254,1.827790499,-4.611741543,10.72924137,63.72574615,-61.89282608,-3.016747475
2255,2.323930502,-2.939813375,11.31005192,60.65281677,-42.38046265,-3.997784138
2256,2.643372536,-1.203898072,11.70678329,55.39598465,-39.38479614,-0.846948802
2257,2.120920897,-1.553633094,11.58157349,47.06604004,-40.44916916,1.31865561
2258,2.148760796,-2.385791302,11.31526184,54.598629,-45.66089249,0.958604455
2259,2.497632027,-2.494232178,11.31402206,62.77826309,-42.68212891,-2.199829817
2260,2.721539497,-1.768980622,11.19648361,59.67748642,-40.82903671,-3.470879555
2261,3.070735216,-0.943493962,11.62941742,52.68097687,-37.21655273,-1.304896593
2262,3.2479918,-0.539006174,12.03248882,40.50239563,-38.87380219,-3.306815863
2263,3.118827105,-0.447969824,11.93010712,26.56018829,-47.20054245,-6.034733772
2264,3.167437792,-0.348534673,11.03460598,10.74263477,-42.08325195,-9.059824944
2265,3.468221664,-0.925626814,10.64765263,-0.176561654,-27.23817635,-11.88508224
2266,4.146532536,-1.471968055,9.651705742,-8.242557526,-6.90686655,-12.66614246
2267,3.914319038,-0.636950493,9.216570854,-9.330510139,6.488541603,-10.45009327
2268,3.436933041,-0.036430959,8.880556107,-16.83973885,12.66832638,-7.474592686
2269,3.004029512,-0.111157402,8.680628777,-19.4249115,17.00305176,-3.622874022
2270,3.164930582,0.120510638,8.992631912,-26.4727478,20.10206032,2.35742116
2271,3.194064617,-0.300897807,9.205200195,-34.26712418,25.99580193,5.478484154
2272,3.659661293,-0.777064502,9.033287048,-20.69873238,34.43593216,7.444227695
2273,3.335847139,-0.095709339,9.862812996,-15.62842369,28.96280289,12.44583416
2274,3.198905706,-0.515733421,10.1710062,-27.28384399,31.86188698,17.65546799
2275,3.159912109,-1.613342047,10.74866486,-30.58374405,33.21231079,15.70234394
2276,2.990507364,-1.546034932,10.24672508,-37.75167084,33.50699997,16.19990349
2277,2.497022152,-0.785831273,9.066413879,-36.37059021,26.92793846,13.36475468
2278,2.312761068,-0.922519803,8.666829109,-37.2942009,15.55153656,15.0245142
2279,2.211557388,-1.870119095,9.631310463,-44.710186,6.579779148,12.40475368
2280,1.830071688,-3.050111294,9.626820564,-52.74133682,-1.438923478,9.402434349
2281,1.174319267,-3.306455135,10.37660313,-40.23500061,-14.33938313,6.750321865
2282,1.191217542,-0.393675387,11.03097439,-38.12228012,-59.1969223,-1.726319671
2283,0.219666794,-2.853611708,12.62767506,-19.82821083,-96.85453796,-12.77636433
2284,0.595669746,-2.795251608,12.16853714,14.70927048,-143.4873047,-28.00560951
2285,2.770535469,-1.226210713,9.564399719,23.17887306,-195.5845947,-31.38505745
2286,4.80446291,-1.189332247,7.531804085,-12.65010071,-216.0040283,-29.10857964
2287,7.929822445,-2.316784143,7.146147728,-26.21021843,-218.1300049,-39.56230927
2288,9.739102364,-2.891345024,7.419146538,-21.59145927,-222.260376,-45.01147461
2289,8.677397728,-3.279549122,7.801293373,-3.258314371,-225.9382935,-44.70354843
2290,6.923753262,-2.935408831,7.450356483,11.33495903,-235.1177673,-44.67087555
2291,7.536189079,-3.158713102,6.783023834,15.42641068,-240.4304962,-50.86460876
2292,8.151205063,-2.583076,6.994130135,10.2743206,-232.3574677,-54.21056366
2293,8.396967888,-1.208878517,7.368561268,14.35211658,-224.6762085,-49.69638062
2294,7.304317951,-1.115009546,7.608301163,7.997943401,-215.0218353,-37.73693848
2295,6.105696201,-2.286506653,7.530278683,4.746550083,-195.3009338,-27.59314728
2296,6.135716915,-2.754696369,7.308320045,5.605556965,-167.4781952,-27.55023193
2297,6.939800262,-2.999903679,6.874198437,9.934108734,-143.6094055,-29.06618118
2298,7.797160625,-2.997425318,6.220993042,15.30877781,-110.6948166,-27.51848221
2299,8.051298141,-2.27882576,5.702209949,17.11501122,-80.3790741,-25.84616661
2300,7.716745377,-1.213668585,5.135901451,19.41365814,-59.73195267,-25.5178833
2301,7.319478035,-0.938838601,5.40152359,26.68820381,-37.70748138,-20.3814373
2302,7.768521786,-0.944341958,5.474703312,25.68945885,-15.44532013,-12.45770359
2303,8.542858124,-1.106006145,5.914021969,17.82517052,2.492086411,-4.9928298
2304,8.688277245,-1.292433619,6.836502552,5.228425026,9.103397369,1.371662974
2305,8.322257996,-2.123178005,7.594846725,-12.27554893,-4.374114513,6.982674122
2306,8.269360542,-1.98676002,5.739518642,-20.17253685,26.03779793,4.176582813
2307,8.837305069,-1.899988055,3.502904654,-27.14258003,75.74211121,4.131596565
2308,8.819084167,-1.415438056,1.365262508,-33.03196716,128.5592499,2.592697382
2309,7.466939449,0.345444053,1.52331996,-31.69732666,153.6713409,4.745453358
2310,5.270346165,2.182806253,3.094177485,-22.44493866,157.851593,15.91411591
2311,4.826714516,1.366547585,4.227128983,-20.84722328,159.0110626,24.22574425
2312,5.048120499,0.643451035,4.464130878,-28.65858269,165.9667969,33.00352097
2313,5.977437496,-0.228202209,5.108433723,-44.15618896,182.4174042,40.33179855
2314,5.130986214,-1.120131969,5.555678844,-56.77519226,198.0702515,44.51016235
2315,4.452918053,-1.66252923,6.555030346,-56.27854538,204.9473724,47.79611588
2316,5.183432102,-1.628524542,7.030724525,-37.94113159,196.152359,43.22330856
2317,5.500510693,-0.858548462,6.722899437,-21.21714783,185.0774689,39.87561035
2318,5.74133873,-0.894931674,6.852613926,-16.20163727,178.9972992,39.16010284
2319,5.733487606,-1.484271169,7.932919979,-19.72441864,179.0940704,37.05778503
2320,6.033267021,-1.638833761,8.951348305,-30.61876488,178.0142975,31.39313507
2321,6.779100418,-2.276427984,9.199194908,-33.80250549,184.1643829,25.84927559
2322,7.614331722,-2.573266268,9.346750259,-27.11702347,189.2926941,20.82656288
2323,7.430639744,-3.453150749,9.585664749,-21.6934166,178.3516083,17.16091537
2324,6.932024956,-4.422042847,9.370722771,-7.518292427,157.9579468,17.14795876
2325,7.245175838,-3.309950352,9.33946991,0.977801263,126.2432327,14.62120819
2326,9.387262344,-2.462273836,10.5703373,-9.688142776,113.4399719,8.656421661
2327,9.880931854,-2.19118309,10.21635246,-33.26039124,101.9649048,7.280686378
2328,8.695549965,-3.111553431,9.551831245,-34.8205719,77.48851776,5.833614349
2329,6.119535446,-3.614248991,10.03526115,-9.65607357,67.12214661,12.66461086
2330,5.883899689,-2.74038744,8.610689163,14.37525368,20.67308998,14.87695599
2331,6.057304382,-2.83370924,6.442024231,13.12174511,-14.59792805,17.63508415
2332,4.885130405,-3.754162073,5.55444479,11.49115753,-23.92221642,23.88911819
2333,3.959545851,-3.698923111,7.103865623,8.579801559,-5.00044775,29.47069931
2334,1.745572448,-3.425528049,9.662068367,10.95621967,59.02362823,24.87586594
2335,-0.995485961,-0.561817765,10.60466576,-0.906893194,57.83876801,17.81560707
2336,-0.863130152,-2.286892653,10.19488716,-3.825299978,55.29721832,12.12931919
2337,1.145512342,-6.201694489,11.08697128,-25.88185883,62.14073944,9.673088074
2338,2.5979352,-3.989750385,9.437047958,20.73469543,55.27423096,6.920713425
2339,1.584694266,-0.06624946,9.065237045,51.04583359,33.66695404,4.3206954
2340,-0.379688501,-0.30849427,8.753533363,42.46317291,25.38387299,6.877268791
2341,-1.010582566,-1.507445693,8.982129097,18.93721962,25.21030807,14.41543388
2342,-0.307859659,-4.394618034,10.89855862,16.09175491,22.61493683,15.33379555
2343,-0.024884067,-4.566379547,10.06087303,18.80406952,21.53107643,12.19032288
2344,-0.219059512,-1.746339917,9.000502586,30.60705566,14.09586048,10.19711781
2345,-1.023057103,-0.933903933,8.832123756,24.10726929,-2.461374283,13.1414175
2346,-1.651908994,-1.865494132,9.013239861,13.80943394,-16.57330132,17.21293449
2347,-0.734269977,-2.174473047,9.452091217,7.613888741,-16.13955879,15.05724812
2348,-0.825801611,-2.52028203,10.36570835,-5.201694965,-22.08634186,10.89847851
2349,0.089139163,-2.869564533,10.27776527,-3.696242332,-25.13088608,5.91958952
2350,0.989934266,-2.76023984,10.0605545,-0.788226008,-23.87310028,-0.131950498
2351,-0.368970156,-1.913460851,10.58001709,4.836782455,-30.41164017,-1.816977382
2352,0.306047678,-1.26460278,10.19297409,11.9523859,-33.60803604,-0.369714528
2353,0.508165538,-1.066808701,10.75319481,20.51245117,-39.59014511,1.281572461
2354,0.123853609,-1.671717167,10.87716866,26.59832954,-43.02266693,-0.369697034
2355,0.366434813,-2.081881285,10.98673153,15.26743984,-51.02797318,-4.089082241
2356,1.210846186,-2.134914875,10.56317616,0.842350662,-47.06899643,-5.222457409
2357,1.270972967,-1.720772266,10.48921108,-2.557076693,-46.50641251,-4.122805595
2358,0.938169062,-1.459139347,10.48439312,-3.647861958,-53.5004425,-2.89697957
2359,0.908403933,-1.595922589,10.76189613,-6.460957527,-58.1782608,-0.318446487
2360,1.05807519,-2.106803417,10.76112747,-8.40243721,-61.46839142,-3.044481754
2361,1.576223254,-2.917662859,10.45014381,-1.931926727,-60.51068115,-3.799168587
2362,2.157896042,-3.071803808,10.39148235,1.716688395,-60.98080444,-3.389827728
2363,1.926170111,-2.777033091,10.60751343,4.599233627,-68.22055817,-3.084569454
2364,2.196115017,-2.399162054,10.546381,6.011840343,-67.59941864,-5.358584404
2365,2.761739731,-2.072031498,10.42999458,7.657855511,-60.20065308,-6.667982101
2366,3.189818859,-2.260857344,9.835716248,9.849617004,-60.12798691,-9.00595665
2367,3.427251339,-2.202232361,9.517632484,13.93685722,-55.04260254,-10.12048817
2368,3.250404596,-2.483247519,10.32984924,10.69769382,-47.55844116,-10.09974003
2369,3.480617285,-2.504489183,11.01359653,4.01396656,-42.6251297,-10.85724449
2370,3.570209742,-2.056900978,11.23033619,-0.285371482,-33.33266449,-9.477757454
2371,3.703443289,-1.887200236,10.97299957,-9.117069244,-31.02057076,-8.432425499
2372,4.125441074,-2.052848577,10.2261095,-18.62819862,-30.17496681,-5.301787853
2373,4.347932816,-2.547005892,9.59703064,-14.00733376,-19.61618042,-5.805246353
2374,4.78958416,-2.649859667,9.983976364,-10.76253796,-1.228846669,-4.25190258
2375,4.991590977,-2.740888834,9.770609856,-25.22840309,6.901429176,0.806462646
2376,4.157147884,-2.907823324,8.786615372,-18.59425735,15.06499195,3.38797164
2377,4.485777378,-2.904803514,9.093540192,4.056190968,14.9066391,8.079143524
2378,4.364400387,-1.06860745,9.175787926,2.807397842,27.11585045,12.7285347
2379,4.198745728,-2.238199234,8.880899429,0.819106042,41.7606163,12.82257938
2380,3.64934516,-2.648862123,8.2766819,0.034968104,54.07909775,10.11861515
2381,3.00636816,-2.438973904,8.135857582,11.74731922,46.62414551,9.292424202
2382,3.082140684,-1.95678699,9.165751457,20.785429,29.796772,6.776710987
2383,3.286055088,-1.568929195,9.802441597,19.8061409,12.99851513,1.815924644
2384,3.019307375,-2.597708225,10.3606987,24.06013489,7.968674183,4.851639748
2385,3.545804739,-2.441654444,12.7545557,28.66592216,-5.240213871,5.030809879
2386,3.002747059,-1.9859761,14.79763317,17.83366203,-24.74609756,-3.920433521
2387,2.133328438,-1.064964056,14.31925392,-1.587664843,-80.208992,-8.225654602
2388,2.235043764,-1.841655493,12.91608334,-26.41663742,-138.9752045,-1.735844016
2389,3.247191429,-1.344302535,8.246207237,-18.36263084,-163.4739532,-9.597984314
2390,4.959592342,-0.43354702,6.456584454,13.91384411,-177.2208252,-20.34499168
2391,6.706309319,-1.385732889,6.249934196,-3.538713694,-202.3569183,-24.05690002
2392,7.437372684,-3.164090633,6.178748131,-12.32557297,-214.1525116,-26.52993774
2393,8.28249073,-3.114950418,6.615908146,-0.17876184,-215.4836273,-34.54428482
2394,8.085857391,-1.521286845,7.877569199,12.50703907,-222.2319031,-33.15425873
2395,7.40989399,-2.049757719,8.168432236,9.263814926,-234.0521393,-29.9136982
2396,7.771901608,-3.468011856,7.932524681,6.519685268,-233.6680756,-32.09017944
2397,7.625693321,-3.049919367,8.084881783,10.39831734,-223.114975,-29.62395477
2398,7.652764797,-1.991137505,7.871769428,23.64283562,-215.7877502,-29.44389725
2399,7.527537346,-0.641330957,8.644979477,24.13832664,-208.1550751,-28.36631012
2400,7.168931007,-1.070958495,7.557024479,-0.030892937,-191.1003876,-20.15712738
2401,6.654175282,-2.191102266,7.629747868,10.88104057,-165.1645966,-19.90863991
2402,7.12206459,-3.329482555,7.01322794,5.612893105,-145.8600464,-17.22827339
2403,7.494534492,-2.876918793,6.918160439,14.30949306,-118.1431198,-19.37839508
2404,8.289108276,-2.034000635,7.321969032,20.96185684,-83.45524597,-22.07374191
2405,8.972681046,-1.81520462,7.027588844,11.24981785,-59.447155,-21.54356384
2406,8.605650902,-1.1110425,5.858196259,11.19942379,-39.2972908,-11.64511967
2407,8.288849831,-0.012813557,6.198263168,9.524586678,-24.23173904,-5.307221413
2408,8.636755943,0.266047746,7.769276142,-29.51953888,-25.77318764,0.446527839
2409,8.471832275,-0.725827336,6.059592724,-62.98881912,-20.35881615,5.940991402
2410,8.988079071,-2.126024961,2.911271811,-84.65481567,22.50574684,11.77487183
2411,9.175115585,-2.958929777,0.902568996,-79.79920197,78.06692505,13.94965076
2412,7.999444008,-2.103014469,2.098207951,-64.04248047,112.5515213,15.75616264
2413,6.69725132,-0.764614105,2.078694344,-46.36312485,133.4723358,25.55925369
2414,5.202781677,-0.507757366,2.556933403,-29.43205643,141.6669312,30.64294815
2415,4.623615742,-0.486606508,3.395663261,-0.789908171,146.642334,37.2101059
2416,5.351037502,-0.615902603,3.685466528,1.462695241,150.8796997,42.7610321
2417,5.909785271,-0.660378575,4.801352501,4.524520397,158.1417389,42.81003571
2418,5.283828735,-0.927348495,4.778802395,-1.132713437,162.675293,44.42900467
2419,4.763824463,-0.975118995,4.920132637,-1.830107808,162.4565277,44.03284454
2420,5.113493443,-1.231206059,4.814194202,2.293532848,157.9006042,42.86252975
2421,6.711663723,-1.074451208,5.241997242,-2.146574974,148.4607544,40.58903885
2422,7.547384739,-0.867413342,5.775899887,-20.56654358,142.0410614,48.06599808
2423,7.251704693,-1.394683838,6.76884079,-32.67375946,139.5088348,50.94780731
2424,7.224264145,-1.522285223,7.637953281,-36.65763092,133.4871368,43.79285431
2425,7.504179955,-1.323477268,7.50140667,-26.10401726,124.8036499,45.04506683
2426,8.594343185,-2.103211641,8.154559135,-33.66985321,121.3653488,40.75143051
2427,8.090076447,-2.260941744,6.469059467,-24.50011444,100.8946686,33.97354126
2428,8.886626244,-3.218802214,6.806209087,2.63841629,82.69289398,28.63262749
2429,11.94428253,-3.9634552,8.593955994,-18.59145164,93.45156097,30.36883545
2430,13.51072311,-4.716333866,8.215428352,-35.51113129,100.1847687,32.2353096
2431,12.20336914,-5.261742592,7.760601044,-29.17065239,92.69019318,32.56935883
2432,9.520145416,-3.73040843,7.495737553,-13.99144554,79.4365921,31.03561592
2433,8.45261097,-1.931623459,7.08422184,7.699841499,56.9618721,25.40970421
2434,10.5771246,-1.866423726,6.74753952,11.20093632,43.1305275,14.63781738
2435,10.62639523,-2.355169773,6.111680031,2.94159627,44.71829224,13.46879101
2436,8.287727356,-2.158775568,3.490149498,17.69518852,40.99094009,22.80970573
2437,6.487879753,-2.524055958,5.559788704,21.38872528,103.3204269,16.68235588
2438,4.170633793,-3.958618879,8.714553833,-4.099766731,161.0854034,12.51885509
2439,1.221416354,-5.207480907,11.3199625,-41.54817963,157.3658905,19.82146454
2440,-0.601437211,-4.451251507,8.404431343,-15.74746609,132.6052856,19.85899544
2441,1.773135543,-6.919135571,9.565947533,15.77130985,107.3428192,26.56296539
2442,2.413069725,-4.907205105,7.877292156,42.9547348,84.59282684,33.09189606
2443,0.733035326,-3.644984245,8.691045761,50.99655914,70.22341919,26.52217293
2444,1.738891125,-3.045718908,10.18137741,39.78555679,67.72801971,11.74906826
2445,-0.023110017,-3.564558268,9.347318649,35.32157516,75.4759903,17.40498352
2446,-1.623723745,-3.913041115,9.625361443,43.82619095,76.13027191,22.5585537
2447,-1.560795546,-2.546294689,8.565732956,38.54292297,52.51644897,16.0930481
2448,-0.668242753,-2.312307358,8.539415359,21.36945343,52.41242981,9.953344345
2449,-1.085842013,-2.96189785,9.201597214,10.7442522,34.11933136,8.945835114
2450,-1.809959173,-2.939381599,8.925093651,17.47285271,23.38590622,2.719750881
2451,-1.18659234,-2.7484622,9.429089546,20.29865456,14.09944439,-2.521242619
2452,-1.060727,-3.392594814,9.090578079,22.03598595,7.671766758,1.864550352
2453,-0.576560974,-3.259566069,9.636439323,24.19598579,1.695096612,-1.161294818
2454,-0.214330316,-2.162065506,10.14949036,17.83529663,-10.43409157,2.337680817
2455,-0.707580388,-2.231648445,10.20791912,9.829227448,-17.13105392,0.773011565
2456,-0.815254569,-2.580627203,10.59727478,8.077127457,-21.81049728,-1.321771502
2457,-0.725396752,-2.921779394,10.40223789,14.36225414,-28.7192421,-6.78795433
2458,-0.423914731,-3.024214029,10.69293594,28.53417969,-31.07495689,-8.816160202
2459,-0.421062291,-3.189791918,10.85861969,35.21847916,-38.38537598,-15.30786419
2460,-0.551388323,-2.919700861,10.38054657,34.96251678,-47.87891388,-16.90161324
2461,0.077952012,-2.756551266,9.421666145,47.7061615,-57.81063461,-10.10873032
2462,0.555475235,-3.006749153,10.40527534,60.5214119,-57.25907135,-5.703063965
2463,0.750577152,-1.451783776,10.63584709,54.85775757,-56.01329422,-11.31744385
2464,0.950798273,-1.978033066,10.81365204,54.21523285,-56.15306854,-14.49241352
2465,1.358419299,-2.272730112,11.08920574,58.63851929,-51.61216736,-17.77906036
2466,2.480014324,-1.995444655,11.57488632,64.98272705,-49.48078156,-14.2565403
2467,1.893311381,-0.550447404,11.22458363,64.64765167,-47.72632599,-14.38515854
2468,1.191703439,0.167535156,10.55269146,61.49042511,-52.79524994,-13.12509155
2469,1.711308956,-0.441934168,10.94338512,55.67938232,-54.80820465,-11.56167316
2470,2.745382071,-0.832513154,10.96927452,40.6071701,-49.50461197,-10.5925703
2471,2.84034276,-0.126581162,10.34401035,34.18668365,-42.75579453,-8.988502502
2472,2.431764841,0.674564958,10.01218605,30.80495644,-39.97689438,-9.707893372
2473,2.129503965,1.09009552,10.06139183,23.99549484,-40.22987366,-10.17379189
2474,3.486967087,1.089735627,10.64079857,16.55226326,-32.24673843,-11.50644112
2475,3.883676291,0.611691296,11.43440723,-2.488591433,-19.17307663,-7.820728779
2476,3.217613935,-0.897196531,11.20476341,-41.15775299,-9.422286034,-5.620441914
2477,3.28115201,-1.073850393,9.47521019,-52.94957733,-5.23003149,-7.500941277
2478,3.887922049,-0.594933689,8.409710884,-28.33122635,7.160134792,-4.061341286
2479,3.062310696,-0.755714774,8.649569511,-19.29258537,21.32168579,0.741502583
2480,2.578812361,0.006346799,9.311761856,-21.2364006,30.12644196,7.739882469
2481,2.625189304,0.91268307,9.740765572,-22.43624878,31.26178551,11.36813927
2482,3.164660454,1.064969063,9.498139381,-25.51239014,31.53154755,15.32161236
2483,3.399094105,0.480587363,9.802307129,-43.52361298,30.97194672,18.0839653
2484,2.769480467,-0.921974659,9.239663124,-54.79930115,36.13972473,28.56885719
2485,2.110836983,-2.007494926,9.512584686,-47.86092758,35.49753189,28.62204361
2486,2.059676409,-1.830947876,10.13229084,-37.09915543,28.20086479,25.20705605
2487,2.505493402,-1.775937915,9.972486496,-31.49915314,21.3645153,23.38585854
2488,2.334177494,-2.278852463,9.613669395,-29.75208664,16.4289608,18.23188782
2489,1.918365002,-3.112826347,10.01951885,-28.07115173,7.823034763,10.6004467
2490,1.340888739,-3.870029926,11.18323517,-17.54939651,-8.836277008,-0.339637667
2491,-0.744873285,-1.996938109,15.17447472,-32.83063126,-72.02362823,-11.59675503
2492,-0.469305038,-0.294428408,9.8826828,0.095612355,-139.1178894,-11.0605526
2493,0.766919911,-1.318908572,8.839113235,21.0674572,-159.2845306,-17.18560219
2494,2.798265696,-0.698567867,7.222863197,17.02200508,-187.4976654,-20.9882431
2495,5.14274168,-0.796403885,7.536202908,-1.313698649,-220.2245331,-28.15578079
2496,6.911717415,-1.661706328,6.295899391,-16.02646446,-241.5805969,-29.16014481
2497,8.684467316,-2.787717104,6.537080765,-11.54104805,-241.9595642,-29.51413918
2498,9.390530586,-2.398183346,7.441064835,4.988772869,-237.4790192,-39.66698837
2499,8.905127525,-1.63156271,9.016119957,10.01661873,-237.2317047,-40.0844841
2500,7.74898386,-1.444055796,9.580792427,0.492120415,-244.4947968,-43.25553894
2501,8.33569622,-0.803223252,9.04769516,-4.208911419,-247.6357269,-43.09077072
2502,8.17282486,-2.137512445,8.622335434,-4.842813969,-238.0800476,-35.45989227
2503,7.837533474,-2.776888609,9.210921288,-14.73459339,-228.6145935,-36.91267776
2504,7.390336514,-2.758265734,8.379864693,-18.00211334,-208.0856934,-26.94347
2505,7.544240475,-2.827379227,8.183744431,-14.90947342,-181.5879822,-21.46249008
2506,7.460307598,-2.984527826,7.150960922,-13.55491543,-142.4176788,-22.65022278
2507,7.239365578,-2.746755123,6.690682411,-8.475426674,-99.38201904,-22.58981323
2508,7.292502403,-1.707624793,6.63010788,-14.31629944,-57.47128296,-24.81119156
2509,7.677056789,-1.221158743,5.903038979,-14.23408318,-32.20656586,-20.7891407
2510,7.324337006,-0.964275837,5.677531242,-20.66441536,-4.946627617,-8.365634918
2511,7.135895729,-0.116541632,5.942695618,-23.85851479,4.089710236,5.786901951
2512,7.457876205,-0.978005528,5.898892403,-29.64684296,14.51981926,13.32860756
2513,7.742060184,-1.285034895,6.139317513,-42.74559021,25.49311066,17.58444595
2514,8.344798088,-0.916413665,7.149808884,-54.95841599,34.03957367,24.90694237
2515,8.183009148,-1.688722253,6.164025784,-58.19676971,48.46625137,29.31014442
2516,7.579353333,-1.29877162,5.807608604,-72.79590607,79.10900116,28.92050362
2517,6.974792004,-0.625287414,2.814734936,-77.30464172,96.65887451,37.64091492
2518,5.631753922,-0.420845181,0.515481055,-29.49991608,115.8881607,41.74898911
2519,5.161362648,-1.16207552,2.016520739,-7.502450466,132.6618805,43.68809891
2520,4.944470882,-2.474827051,3.212308407,-9.74147892,145.6560669,49.30979919
2521,5.355004787,-2.709908247,4.425252914,-11.01143456,155.6275787,57.82315445
2522,5.771597862,-2.415341616,5.037373543,-11.24585533,161.1253204,59.64939499
2523,5.184928417,-3.083895922,6.113606453,-10.4515686,174.4883423,58.7544632
2524,5.036170959,-3.567015409,6.452181816,-2.567777872,177.3347626,52.41608047
2525,5.195230961,-2.741858959,7.306045532,9.093976974,170.0194855,43.02956009
2526,5.395765305,-1.116467357,6.659334183,10.49814034,156.3899994,42.0986824
2527,5.693320751,-0.42997694,7.092023373,2.36859107,141.1687012,38.22541809
2528,5.926388264,-1.592519045,8.151224136,-27.26535988,145.3589325,37.98954391
2529,6.846148491,-3.338155985,8.685792923,-40.39354324,142.5569763,40.6438942
2530,8.159934044,-3.860307217,8.296914101,-43.58341599,141.3703156,42.26885986
2531,8.177899361,-2.768583536,9.288405418,-34.5135231,145.3366241,40.95763779
2532,7.496310711,-3.796067476,8.243356705,-20.19030571,124.6766205,39.41088104
2533,7.849095821,-6.049953938,9.343231201,-20.00610352,110.6685791,33.98313904
2534,10.43161583,-6.430510044,10.61057281,-25.25514603,97.57691193,27.33586693
2535,11.16234398,-6.291414261,10.35915947,-22.978405,65.8452301,33.09607315
2536,10.17067051,-5.037419319,9.178949356,-10.58307648,47.06033325,32.6061554
2537,8.685494423,-3.94630146,8.195509911,13.59755993,54.41260529,25.83129883
2538,8.873228073,-2.67913723,6.593294144,39.02523041,66.60692596,13.53639221
2539,7.537770271,-2.036498308,5.81666851,55.30984116,31.06248093,16.3041954
2540,6.779273987,-1.965336561,5.805357933,33.71725845,5.938824177,20.96780014
2541,6.129503727,-2.989248991,5.531264782,18.90058136,12.656847,24.375103
2542,3.733318329,-4.377383232,8.574765205,20.96613884,77.49884796,19.79436874
2543,-0.090618476,-3.9247334,7.964821815,14.3962183,83.67958069,23.80439377
2544,-1.127956271,-5.049856663,11.19634724,5.649096966,106.3973618,21.56126595
2545,1.170964599,-4.22797823,11.67037201,17.30624199,116.8645401,13.44808674
2546,2.113509893,-1.540116549,8.145466805,70.12126923,84.77573395,12.58385181
2547,1.983362913,-0.309110761,8.635275841,65.14083099,66.10360718,11.34231186
2548,0.620062709,-0.44865799,9.472354889,45.43697357,55.0853653,12.9094696
2549,-0.597769737,-1.52903986,10.53643608,34.39074707,48.68915558,18.38928032
2550,-2.043066502,-2.706613779,10.65439129,19.36574364,37.9298439,12.82123089
2551,-1.453072786,-2.177957058,10.18255901,5.976638794,28.75318336,4.340097427
2552,-0.890006363,-1.597407579,8.990573883,-2.470660925,14.33144665,7.467261314
2553,-1.235503435,-1.353693128,8.686842918,-5.497210979,5.382946014,8.069795609
2554,-0.854243875,-2.951593876,8.958877563,-8.078083992,-8.015716553,7.882716179
2555,-1.212122202,-4.25453043,9.041642189,-1.535304189,-19.40066147,-1.43122685
2556,-0.813284755,-3.820454121,10.70765877,12.1778326,-19.45508957,-7.490923882
2557,-0.149680138,-1.617580414,10.67823124,23.629673,-25.71022224,-9.351457596
2558,-0.546695411,-0.483633131,9.87032032,27.38705635,-42.62414551,-3.633898973
2559,-0.832964957,-2.232720375,10.62577438,24.47955894,-56.80954361,-3.759328842
2560,-0.420972437,-2.645841837,10.04369354,9.285740852,-61.89407349,-8.775803566
2561,0.753947854,-2.723309994,9.728149414,-3.390818596,-59.66535187,-4.970643044
2562,1.489075184,-2.640837193,9.823008537,-15.03354168,-50.93389893,-1.284329414
2563,1.062439322,-2.851096153,10.06848812,-13.69512272,-52.23894501,0.803920507
2564,1.605158448,-3.080444574,9.79208374,-12.16375923,-51.96861267,-1.154260516
2565,1.718970776,-3.273711443,10.25827885,-7.786128998,-55.33834839,-0.515128255
2566,1.153837323,-3.499858856,10.50513363,-5.917403698,-60.07520294,-3.250959396
2567,1.394133568,-3.635584116,10.62708378,-1.148449063,-57.92304993,-9.577782631
2568,2.100811005,-3.641525269,10.48478699,5.347069263,-57.61660004,-11.04364109
2569,2.285756588,-3.38672471,10.39038372,8.675004005,-59.38562775,-14.95020676
2570,2.182874203,-3.036355495,10.31525421,14.47503376,-59.50946426,-14.56480122
2571,2.679848433,-2.544043541,10.17457104,28.20051003,-47.8381691,-19.27705956
2572,3.246140003,-2.723204613,10.23302937,38.16290665,-47.37117004,-14.89185333
2573,3.326164007,-3.156973362,10.16851234,22.46477318,-52.86023712,-7.260722637
2574,3.492739677,-3.233348846,10.28064728,2.345630884,-39.69429016,-7.257361889
2575,3.307360172,-2.666177034,10.33835983,-0.247586548,-39.13341522,-6.65110445
2576,3.415263414,-2.375041008,10.08334923,4.919842243,-33.6921463,-6.505972385
2577,3.658991575,-2.52182889,10.05442905,8.543987274,-32.14970779,-5.391084194
2578,4.176931381,-2.667693138,10.37406254,7.871155262,-25.64780426,-3.987190485
2579,4.198840618,-3.051747322,10.52349567,4.744022846,-19.24853516,-1.128753304
2580,3.986281395,-3.496636629,10.52054882,2.407242537,-10.42072296,0.672749877
2581,3.979373455,-3.342721939,10.353652,3.081784487,-3.383725882,-0.680330992
2582,4.039225578,-2.871363878,9.977118492,5.522630215,2.371857882,0.099204406
2583,4.004848003,-2.486009598,9.665533066,13.895998,6.679638386,3.232601166
2584,4.261638165,-2.874662161,9.156175613,24.84002876,14.41291142,6.978559971
2585,4.091191769,-3.215565443,9.201851845,31.98783493,31.47839546,8.762406349
2586,4.497159958,-1.868484497,10.51476479,15.95190048,49.60342026,3.820663691
2587,4.322936058,-2.120699167,10.42440033,21.05726624,60.45988083,1.260284781
2588,2.672463417,-0.894115269,8.642796516,32.16754913,34.01676559,1.750084281
2589,2.772105217,-0.783000827,9.706830978,30.50901794,27.6461277,-0.911580622
2590,2.800134182,-1.073072314,10.36026192,8.517597198,36.31386185,-4.641613483
2591,3.125470877,-0.433714837,8.41113472,2.043154716,37.60723495,-5.280430317
2592,3.141932487,-0.979114652,8.925307274,0.506948113,36.71522903,-1.080207825
2593,2.706391335,-0.753727436,9.331871986,-2.609351873,27.19112206,7.046373367
2594,2.07029891,-0.786016464,9.972119331,2.968775272,6.859499454,5.825821877
2595,2.405177355,-1.220962763,11.10911179,-22.59947777,10.07842064,0.76231885
2596,1.160194874,-1.468966842,11.81916046,-44.35420227,-11.64039707,10.8284111
2597,0.605659425,-2.66347146,9.894328117,-38.60238647,-70.13672638,15.93200588
2598,1.307288885,-4.528754234,7.561285019,-22.18277359,-90.47805786,-0.0579505
2599,2.782710075,-2.859202862,9.611885071,-30.58688164,-115.4169312,-13.95573807
2600,3.532218933,-1.165676951,9.304626465,-24.60051727,-149.4035645,-12.14630508
2601,4.805672646,-1.933480024,7.615902424,-25.89984322,-165.0922241,-17.42311859
2602,6.323788166,-4.329258919,7.633068562,-12.73899746,-185.6314697,-25.19207001
2603,7.799131393,-4.606215,7.480640888,-0.506521523,-192.300766,-39.58975983
2604,8.152756691,-3.414237499,7.431437016,12.76265812,-192.3425598,-47.12954712
2605,7.90729475,-2.711960077,8.105540276,26.56735039,-199.911026,-48.98003006
2606,7.839509964,-1.938328981,9.053927422,32.85443497,-210.872757,-44.90501404
2607,7.46841383,-1.877874374,9.137098312,39.28154373,-213.7744904,-38.1871109
2608,6.277819633,-3.287806511,8.748662949,48.96337891,-215.8109589,-36.28134155
2609,6.162307262,-3.141253233,8.576395988,75.12609863,-223.1240234,-43.77626419
2610,6.642615318,-2.360999823,8.316259384,88.47062683,-220.5854492,-46.21107483
2611,6.291730881,-0.815876126,7.068980694,76.51441956,-193.7712097,-40.36618423
2612,7.233550549,-0.6433357,7.802770615,50.90925598,-161.3377228,-35.79870224
2613,7.475072384,-0.713052511,7.127850533,19.82021523,-122.3625107,-30.00898552
2614,7.373912334,-0.856181443,7.229046822,14.73919106,-101.3680191,-24.69161987
2615,7.041682243,-0.636391938,6.740232468,-2.267957449,-81.49491882,-17.46301079
2616,7.343550682,-0.708545804,5.916682243,-5.337527275,-53.50265884,-16.62442589
2617,7.456371784,-0.859141707,5.820036411,-4.971372604,-33.50851059,-14.91850948
2618,7.548640728,-0.732626677,5.990192413,-9.301498413,-18.64730835,-7.310889244
2619,7.99864769,-0.482395649,5.758731365,-19.00143051,2.978702784,-0.497283936
2620,8.557322502,-0.740325451,5.759365082,-35.71450806,25.23711967,4.351153374
2621,8.647499084,-1.200176477,6.623625755,-51.03359604,43.96365356,9.346323013
2622,9.216243744,-2.021600723,7.311673641,-74.58377838,64.67815399,15.90119934
2623,8.053142548,-2.148893356,5.832190514,-68.34570313,84.1296463,18.79829597
2624,6.152698517,-1.386934876,5.475235462,-53.38895035,69.99285126,21.26296425
2625,5.999234676,-0.032785367,0.778619826,-32.62294388,67.85962677,28.77923393
2626,6.140880585,0.482117087,1.046308994,1.18474853,108.1297607,28.42635918
2627,6.594701767,-0.307104379,3.168947697,3.37612772,131.3906555,26.43192482
2628,6.824803352,-0.675553918,4.008440495,3.355894089,147.1444244,28.72172356
2629,6.273806572,-0.727794707,4.791934013,9.767044067,155.0103302,31.76078606
2630,5.485586166,-0.418310076,5.733393192,17.56676865,162.7716217,33.51698303
2631,5.883254528,-0.489715189,6.21611166,21.06444359,171.2220001,28.88028336
2632,6.754867554,-0.700434625,6.214565754,27.00989342,179.7360687,22.07403946
2633,7.215855598,-0.688507378,6.621325493,26.17325401,194.8522797,16.89586639
2634,7.323865891,0.119407699,7.971608639,26.05171967,205.3166656,18.71357536
2635,7.412854671,0.959821641,9.276361465,29.23196983,209.9225311,19.37204361
2636,6.965493202,0.682942212,8.95865345,24.34579086,199.2189789,8.576293945
2637,6.485599041,-1.153354168,8.766626358,29.42670631,185.1852112,-3.840216637
2638,4.976933956,-1.72620225,8.051056862,30.47967148,150.9061279,-7.272023201
2639,4.237543106,-1.301578522,7.264475822,23.95039177,108.5852432,3.995102406
2640,5.936336517,-0.441742122,7.750381947,3.828134537,74.87799072,16.78185844
2641,9.881138802,-1.564571142,10.20011425,-46.39827347,83.75067139,13.21605492
2642,12.05895329,-2.222217798,10.71754074,-89.76833344,92.6064682,2.66584301
2643,10.70321465,-2.840555191,10.24910355,-61.14804077,86.43930817,2.565770149
2644,7.855102062,-2.353973627,10.09045219,-3.27671814,63.50188065,4.081705093
2645,7.325778961,-1.02780056,9.772515297,19.6429863,46.14408112,-6.970059395
2646,7.564655304,-0.091929965,8.472205162,42.32886887,28.63554764,-10.27546501
2647,7.172125816,-0.841593027,6.205670834,38.8711319,-3.424802065,-5.698030949
2648,5.701326847,-1.630430579,5.056465626,18.36741638,-16.8327179,6.331852436
2649,4.22731781,-0.213161245,5.09304285,-0.873881459,21.69423485,9.372274399
2650,2.645002604,0.011288034,10.64084816,-15.51211834,88.15513611,15.50675774
2651,0.262702882,-1.717997909,14.55796432,-50.89035034,121.3335419,19.73723984
2652,-0.427165151,-4.744058132,10.12619877,-50.45714188,91.8494873,19.3532505
2653,1.827852249,-4.437206268,11.43113136,13.24561691,98.17004395,11.05411816
2654,2.520030022,0.666627765,9.120733261,30.70041656,68.83769989,7.45235014
2655,1.001013517,2.316304922,8.605427742,34.8197403,54.54759598,16.84997177
2656,-0.201283425,-1.067461848,10.47901058,3.19937706,53.36109924,21.48530197
2657,0.457338631,-2.876111031,11.3540411,-23.41019058,57.22426224,18.60736084
2658,0.686692238,-2.523667097,11.00802708,-15.60608387,59.20502853,17.5222435
2659,-0.656355858,-1.206580043,9.888129234,-4.202225685,51.12313461,8.933838844
2660,-0.998737037,-0.286700457,8.665254593,0.085758045,32.45616913,5.84530735
2661,-0.610452771,-0.7469396,8.548841476,-0.370071977,18.38677979,6.821592808
2662,-1.304127812,-0.992729425,9.382823944,1.083590269,5.837590218,3.360738993
2663,-0.764952004,-1.124567151,10.05458355,-8.573117256,2.075909853,-1.032108784
2664,-0.540818453,-1.320633411,10.43945313,-9.517817497,-3.217449665,-3.521229029
2665,-1.027078032,-1.303264976,9.712439537,-10.53268242,-12.86408043,-2.800700188
2666,-1.301187992,-1.728460908,9.98948288,-16.97849655,-24.61684418,-3.372870684
2667,-0.335584581,-1.785990119,10.05866051,-24.83020973,-34.73264313,-1.809868932
2668,0.410222143,-1.557788849,10.28058243,-27.32302475,-28.90477371,-2.017165184
2669,0.675777137,-1.756519079,10.75513744,-26.08211327,-24.31222534,-4.559177399
2670,0.076074615,-1.639641762,10.70811749,-21.0894165,-26.39566994,-1.787619829
2671,0.008178443,-2.074722052,11.03563499,-14.98986244,-32.22813034,-4.39727211
2672,0.411535084,-2.403552055,10.59601212,-16.89463043,-38.78000641,-7.982197762
2673,0.883006811,-2.264203548,10.28308105,-14.63117218,-43.23497391,-7.845127106
2674,0.78542304,-2.429953814,10.53540325,-13.47301579,-42.41362381,-5.51259613
2675,0.660114229,-2.110898256,10.68483257,-3.707482338,-36.96996307,-5.766587257
2676,0.511017323,-2.145378113,10.69692039,11.82560825,-44.8921814,-4.524556637
2677,0.898886979,-2.73140049,10.90919399,6.259655476,-51.14237213,-4.319046497
2678,1.156151295,-3.144410372,11.37134838,-0.064903229,-53.21657562,0.63570714
2679,1.513327956,-2.263047934,10.67127132,-1.417127132,-54.23319244,-0.38568005
2680,1.490272045,-2.02311635,10.63965511,1.952531934,-51.25908279,-2.940762043
2681,2.025601149,-2.199134588,10.61826324,2.106748581,-52.77698898,-1.142978072
2682,2.217672825,-2.588298321,10.23731804,5.474574089,-54.84328842,1.676887631
2683,2.480320692,-2.74027133,10.22737885,7.818734646,-51.61943817,-1.315832973
2684,2.815248013,-2.853640318,10.3667717,3.867984295,-42.76861954,-2.687878132
2685,3.385286093,-3.078830481,10.31378746,-5.557796955,-31.84179878,-3.539867401
2686,3.457388163,-2.901427031,9.921851158,-4.555433273,-23.95318604,-2.775526047
2687,3.222990751,-2.413615704,9.034890175,1.779424071,-12.12432861,-1.563592196
2688,3.429513454,-2.378676176,8.76351738,9.692034721,4.972982883,2.151819706
2689,2.929243088,-1.624544144,8.113580704,11.58047199,10.51361179,4.619971752
2690,2.847158909,-1.418791413,8.486129761,9.641591072,15.11359501,3.31231451
2691,3.080580711,-1.208437204,9.186284065,-2.078831911,19.81382561,4.623898983
2692,2.867510796,-1.077188134,9.609948158,-7.357253551,20.1311779,2.986906528
2693,2.859768867,-1.84314537,9.832152367,-4.418739796,15.74857426,3.734194994
2694,2.649530888,-2.135529041,9.780574799,-8.311038971,10.35045815,4.360923767
2695,2.560740232,-1.841933727,9.834989548,-8.771899223,6.056842327,4.582178116
2696,2.156583548,-1.878156304,10.36267281,-8.061348915,0.657516479,2.416648149
2697,2.418518782,-2.258904696,10.75868702,-18.19569397,-5.913364887,-0.055515599
2698,2.566620827,-2.784497738,10.3542347,-20.03922462,-17.57433891,-1.857027888
2699,2.560765982,-3.702916622,10.83202362,-17.82237053,-30.12908173,-3.614569902
2700,2.81718111,-1.89076364,12.07277679,-11.00315666,-47.1565094,-9.717056274
2701,2.293697596,-1.321253538,13.31311989,1.212919712,-46.83315277,-19.92834854
2702,1.621789455,-3.398540497,11.65701675,-7.020065784,-111.4626541,-9.885792732
2703,1.829395652,-3.047334909,10.6969862,-26.33885193,-135.0161896,-8.147547722
2704,2.667155981,-1.992685795,9.652946472,-26.17119789,-156.7905579,-11.51203156
2705,4.384949684,-1.719511986,7.83054018,-14.81446552,-174.1352692,-20.20507813
2706,5.940694809,-1.999026656,7.07651186,-8.773995399,-186.8459167,-25.5704937
2707,7.268614292,-2.222623587,6.794413567,-4.904248714,-196.9468536,-27.95978355
2708,7.763124466,-2.68798852,6.972316265,-6.873812199,-206.0952454,-30.74572754
2709,7.645554543,-2.903754473,7.377577305,0.666691482,-205.3967896,-33.59629822
2710,7.43406868,-2.595427275,7.570353031,10.78448772,-209.405426,-34.09488297
2711,7.623908043,-2.479163885,8.363166809,17.90380859,-217.1424866,-33.27642441
2712,7.964029789,-2.792411089,8.66488266,15.20727158,-221.2488403,-35.20299149
2713,7.676722527,-3.069489479,8.044448853,15.41003036,-208.0014648,-36.66931152
2714,7.027964115,-2.730462313,8.053455353,11.63652515,-193.3577271,-35.52653503
2715,6.369898796,-2.451049089,7.767085552,16.56038475,-175.1485443,-33.36561584
2716,6.693462372,-2.365778208,7.558516502,26.39628029,-158.1859283,-28.02514839
2717,7.447733402,-2.110341311,7.045017719,20.7955265,-135.4172516,-20.34247971
2718,8.105639458,-1.872634292,6.342993259,13.06007385,-103.2062531,-17.02983475
2719,8.634238243,-1.763348341,6.047945976,1.690732718,-71.63538361,-16.37125587
2720,8.730877876,-1.270855188,5.76295805,-14.68548107,-40.09801102,-15.43017578
2721,8.509151459,-1.205027699,5.8047328,-24.9176712,-12.35958576,-8.983131409
2722,7.872445583,-0.904628932,6.990415096,-27.37764359,-6.399722576,0.155629605
2723,7.43254137,-0.928175151,6.087008476,-27.01173401,-7.245983124,8.370941162
2724,7.957073689,-1.660694003,5.761517048,-31.3093586,6.977753162,11.45428181
2725,8.413094521,-2.927428484,5.445681572,-59.98082352,38.29665756,10.99426651
2726,8.48331356,-3.30838275,4.906318665,-84.2850647,72.55866241,12.58100891
2727,7.189798832,-1.851837397,1.831834912,-70.40752411,99.35811615,21.8734684
2728,6.306830406,-0.860796392,0.713733852,-20.99878883,120.4808197,24.03958511
2729,5.501114845,-0.446800888,2.548250437,-1.79222858,143.5131073,23.85540009
2730,4.912529945,-0.735682309,3.754150391,5.266942501,149.6907959,30.80407524
2731,4.938064098,-0.890086234,4.336647511,14.85174465,154.5567169,35.42233658
2732,5.036732197,-1.243168235,4.987205505,10.16625214,157.9636536,42.02038956
2733,4.917394638,-1.875657201,5.551226616,8.346434593,160.9488525,45.6316452
2734,4.811231613,-1.838716507,6.274606228,9.185581207,163.0424347,47.98740005
2735,5.002285004,-1.526967168,6.139448166,20.08818436,158.7139893,46.86108017
2736,5.643278599,-0.966528356,6.146539688,22.91665459,152.3929901,44.82453918
2737,5.885343552,-1.163885117,6.313384056,12.98289967,144.0619965,40.36427307
2738,5.299031734,-2.14068985,7.063156605,9.560505867,135.7514343,38.85972214
2739,5.272954464,-2.465031624,8.249128342,14.05471992,128.1466675,31.31953239
2740,6.497813225,-1.96942234,9.895507813,12.52493382,124.0765076,17.52319908
2741,7.237211704,-0.617873311,8.465473175,14.85048103,112.1798782,15.19225979
2742,7.968596935,-1.915710688,8.286639214,27.67463303,98.16230774,22.90544319
2743,8.639025688,-3.516381025,8.248015404,33.53155518,84.98622894,32.98770905
2744,10.48070335,-4.574579239,10.14809513,-8.819080353,84.00899506,26.2652874
2745,11.8442173,-3.459137678,9.39151001,-36.03275681,77.53302002,19.35376549
2746,10.88502789,-2.668735027,9.213222504,-19.43230057,62.94983673,20.94481277
2747,9.974995613,-1.941272616,9.270306587,-7.337198257,50.92143631,23.02814293
2748,10.44393349,-2.667034149,9.455008507,-15.31560993,41.09032822,20.21181679
2749,10.72498322,-3.455713272,7.55662775,-16.45117569,16.61331177,23.02278328
2750,8.210820198,-3.734446764,5.219852924,19.63982773,-8.681419373,32.45901108
2751,6.829871655,-4.140222073,4.957183838,46.1078186,-3.578974724,41.15693283
2752,6.231225967,-3.865689039,10.06064415,-2.29202199,53.35123825,31.5199337
2753,3.399498701,-0.972505391,6.220827103,-47.23826218,64.96695709,30.65547371
2754,1.146112919,0.135719463,9.445053101,9.188179016,95.6359024,28.86257935
2755,2.671724796,-4.565767765,9.76397419,-23.95583916,100.4171524,28.84235573
2756,3.73537159,-8.247529984,11.02085018,-26.96281433,120.096405,23.17841339
2757,1.554513693,-3.789048672,9.684877396,13.24420547,100.2419052,14.44447422
2758,1.686152935,0.524242222,9.163228989,43.98098373,87.06996918,7.528115273
2759,0.930843711,0.163359389,9.028738022,34.78406143,83.31018066,9.988993645
2760,0.734178066,-2.348402023,9.642259598,11.9281044,68.76821899,12.80887604
2761,0.14500314,-3.335535765,9.140972137,4.062936306,65.95262146,10.8437109
2762,-0.581008017,-2.393758059,9.127303123,7.705914974,58.5953064,9.042568207
2763,-0.67028594,-2.298505068,8.888596535,19.96048164,40.56216049,10.2125597
2764,-0.524561584,-2.330232859,8.726306915,21.99657249,27.54108238,7.087059498
2765,-1.167668581,-2.381084442,9.164440155,24.79679298,18.31816864,2.532585621
2766,-1.209926009,-2.837178946,9.46346283,12.74421883,18.70259094,-4.361774445
2767,-0.435345769,-2.500156879,9.61578083,10.39941883,13.12575436,-13.01639462
2768,-0.252217412,-1.354523659,9.435669899,15.57171345,-8.350427628,-2.010009766
2769,-1.088434696,-2.563882113,9.702270508,16.68820763,-4.068811893,0.04659595
2770,-0.593465507,-3.465631247,9.783294678,11.69500637,-19.87928391,-0.112363137
2771,0.760798693,-2.771077156,9.712822914,19.25198174,-18.21894836,-3.07994771
2772,0.739068031,-2.293551922,10.18807411,25.48840332,-23.94225311,-3.839450121
2773,0.104993448,-2.369108915,10.82075977,20.25836182,-29.70670509,-2.912177324
2774,0.07136558,-1.989747405,11.0029459,17.46741295,-35.1952095,-7.127976894
2775,0.452970028,-2.14778924,11.04733562,16.0152359,-40.25059128,-7.406014442
2776,0.625570297,-1.967647433,10.38520241,14.24306107,-45.13627625,-7.126957417
2777,1.347694159,-1.851297379,10.18956757,8.235264778,-37.96941376,-8.135432243
2778,0.981980503,-1.609511614,10.56063461,2.858779907,-33.79711151,-6.745299339
2779,1.054942966,-1.369808793,10.66082096,7.479413033,-36.4667244,-4.85117197
2780,1.151169419,-2.012773037,11.03158474,10.27683926,-40.65629959,-3.235909224
2781,1.198801637,-1.993222237,10.71170235,14.51124954,-43.07056427,-3.500634432
2782,1.114233017,-2.544785023,10.6370821,8.961639404,-41.12313843,-5.445550442
2783,1.451468945,-2.988399029,10.48601532,4.196138382,-43.91263962,-3.689573526
2784,1.89284718,-2.65823698,10.54084301,9.707567215,-46.92024612,-2.145311356
2785,2.266239882,-2.471572399,10.54633141,13.97050762,-45.38771057,-3.007486343
2786,2.425813437,-2.596765995,10.61039734,16.42822647,-37.71327209,-2.233799219
2787,2.614791393,-2.745792389,10.25434303,15.39589691,-25.65310478,-1.275516391
2788,2.743256092,-2.788190842,9.65280056,20.51254272,-17.67307854,-0.050354704
2789,2.586974859,-1.77545917,10.37271404,14.76355648,-16.3567524,1.567320704
2790,2.768858433,-1.089454532,10.20223808,7.297945499,-9.669138908,1.680488586
2791,2.6661973,-1.070390701,10.92990494,3.392741442,1.015242577,2.6260252
2792,2.504994154,-1.369865179,10.63048172,-1.41110611,0.985596001,1.426992416
2793,2.752359629,-1.507094145,9.784714699,5.221726418,-1.726917386,3.353023291
2794,2.85026741,-1.794914484,9.47385788,8.103254318,-0.87545532,10.27606964
2795,2.978625059,-1.662447453,10.53459835,11.76280975,14.11340523,8.587482452
2796,2.666609526,-0.182213396,10.77958775,30.2678299,5.142926216,6.291621208
2797,2.801110983,-1.686891079,10.0696249,5.215586662,-6.563218594,5.494713783
2798,2.550163507,-3.330663443,8.809501648,-6.228331566,-4.480866432,7.202645302
2799,2.682571173,-1.808600664,9.266151428,24.44824409,-7.132675171,10.37090397
2800,2.985297203,-0.564888716,10.45217705,25.85082626,-7.807863235,11.44063091
2801,3.27698946,-2.28104496,11.05194473,21.52543831,-6.385028362,9.135230064
2802,3.552210093,-4.497375011,11.68262291,29.49476242,-14.53381824,6.644555569
2803,2.172179461,-3.513035536,11.83951759,40.69136047,-35.86064529,7.472366333
2804,1.248761654,-0.890698314,11.21846676,39.94327927,-73.28779602,8.592516899
2805,1.429216623,0.56059593,11.62072182,47.39430237,-110.8997192,3.402200222
2806,1.599331737,-0.147207558,11.36757946,9.108545303,-159.2885895,-2.529378414
2807,3.623268127,-1.119581103,7.000803947,10.76346588,-179.0518036,-0.436989397
2808,5.591497421,0.187675238,5.70561409,24.6692028,-179.7270355,2.944732666
2809,6.919840813,2.121542692,6.001691818,7.903753281,-177.8699646,-5.326487541
2810,8.332102776,0.958916187,6.541987419,-13.42614365,-186.7707214,-13.57036209
2811,8.709200859,-0.17758213,6.705861092,-11.50758553,-189.269165,-12.58085728
2812,7.991548538,-0.098661073,7.183071613,-8.341629982,-191.5329742,-11.51298332
2813,8.250573158,-0.169471428,7.76415205,-17.64088821,-196.1038208,-12.96148491
2814,8.557188988,-1.37040627,8.507851601,-27.15783501,-193.7754364,-11.49567795
2815,7.93115139,-2.062018633,8.905492783,-33.63868332,-178.0360413,-2.440480947
2816,7.556714058,-2.420814037,10.01591492,-24.46249962,-175.7325134,-6.651716709
2817,7.070803165,-2.273521423,10.16988564,-22.34802818,-165.9977264,-7.832587719
2818,6.842804432,-1.688620687,10.3327713,-23.54834366,-150.798111,3.332415342
2819,7.213938236,-1.758904696,9.806617737,-31.54227448,-133.1081848,-0.231003344
2820,7.122352123,-1.928982615,8.91067028,-26.00280762,-115.9228592,0.013530581
2821,6.798400879,-1.65087688,9.077475548,-27.10388756,-94.82543945,-1.102754116
2822,6.542708874,-1.432265759,8.190834999,-32.30002213,-74.42889404,-2.05837369
2823,6.603114605,-2.065566778,7.431704521,-39.27135468,-42.22943878,-4.587922096
2824,6.765740395,-2.151032448,6.053835392,-45.86478043,-10.36840916,-6.77512455
2825,6.795062065,-2.320124626,5.334808826,-43.22786713,13.64741707,-13.51633644
2826,7.236069679,-2.262994766,4.19205761,-35.31799698,38.13359833,-18.39282799
2827,6.960547447,-1.012926459,4.10098505,-21.7775383,59.98656082,-9.397368431
2828,6.735001087,0.018710919,4.674949646,-20.47046089,72.91499329,0.888061464
2829,6.438999176,-0.175010175,3.840684414,-25.28708267,80.52912903,8.375469208
2830,6.226361752,-0.86542207,3.645871401,-21.96660995,98.75267029,8.529166222
2831,5.986905098,-1.350307465,4.285830498,-25.26729202,109.2871704,11.55780697
2832,5.71169281,-1.279133439,4.589081764,-12.31005478,120.5049438,20.5206337
2833,5.609632969,-1.526299834,4.23241663,0.784876943,127.0606003,24.12793732
2834,5.557073593,-1.645699739,4.665169239,9.644773483,141.086441,25.55084038
2835,5.373969078,-1.631404996,5.305768967,9.084313393,154.0893402,27.73747063
2836,5.001831532,-0.957150459,6.267474651,6.193432331,158.5339203,30.75737762
2837,5.130041599,-0.691973448,6.704708099,-3.792378902,156.822876,30.96609306
2838,5.348667145,-0.588051975,7.384912491,-6.445551395,153.1231079,32.08794403
2839,5.272187233,-0.753378808,7.627390862,-9.443205833,148.0522614,34.1786499
2840,5.243538857,-1.41610086,8.115381241,-16.8056469,140.1759949,33.3393898
2841,5.723184586,-2.179455042,8.652659416,-23.34244156,130.5103607,30.2560215
2842,6.384392262,-2.244797707,8.556647301,-30.21332169,124.8553391,32.53180695
2843,6.580635071,-1.329678178,8.76301384,-39.08317184,127.5580215,34.3237915
2844,6.214702129,-0.904273331,8.841135979,-43.30713654,118.2117767,22.572052
2845,6.759151459,-2.329036951,8.369177818,-16.29297066,97.5013504,17.05308723
2846,8.727783203,-4.571875095,9.81407547,-20.91415977,82.86869049,16.63348007
2847,11.97543049,-4.375166416,10.11526966,-40.29084396,77.64159393,18.73603249
2848,12.51395607,-2.793923855,9.200427055,-41.07730484,80.88493347,20.20814323
2849,10.5746069,-3.030335188,9.068367004,-19.11468124,71.79238892,15.50251675
2850,8.975683212,-3.361206055,8.400078773,16.8602581,62.28133392,11.47022533
2851,8.335069656,-1.660182476,6.758101463,41.3723259,43.98138046,10.97144127
2852,7.513187885,-1.364120841,5.168487072,48.74796295,31.51643944,9.517082214
2853,6.567699909,-4.54269743,4.463895321,48.81986237,26.2959919,6.17044878
2854,5.579936981,-6.295110703,9.179180145,30.45404053,71.24905396,3.512074709
2855,0.698936582,-2.153005838,9.061039925,11.43242931,78.26356506,-2.159780979
2856,-1.846848249,0.841537952,7.881035328,52.32329941,67.64191437,-3.050756216
2857,0.736562848,-2.664348125,10.8940115,-31.04423523,82.52133942,-3.983204126
2858,3.179152489,-4.748238087,11.04109287,-9.178679466,76.08946228,3.104061127
2859,3.223040819,-3.729473114,8.577065468,26.25179863,60.9974823,10.40505695
2860,1.546289444,-0.111627445,9.754097939,6.508628845,59.84505081,-1.461524248
2861,0.746891499,-1.761065841,10.26657486,3.132348299,52.62845993,2.831716537
2862,0.567104936,-2.910511255,11.08716011,8.227137566,45.34863281,8.809562683
2863,0.382777423,-2.045315742,10.85781384,11.50731373,35.07288361,7.456375122
2864,-1.145898461,-2.815837145,9.761063576,7.157604694,20.86099052,10.93292522
2865,-1.143614888,-2.785140991,8.936883926,-2.060031891,11.49282265,12.23706341
2866,-0.680121958,-2.351629972,9.062407494,-7.097310543,-1.378515124,13.96323013
2867,-0.922195733,-2.483078957,9.522968292,-10.89899635,-15.86624622,15.7244463
2868,-0.411227942,-2.530533791,10.35516453,-7.689749718,-25.15118408,13.17487431
2869,0.103163227,-2.672555447,10.15451908,-9.279873848,-22.78162766,10.4676857
2870,0.732463777,-2.780060053,10.34422016,3.311280966,-6.247015953,5.971185684
2871,1.148122907,-2.643677235,10.65212154,6.661819458,-2.940914631,6.12625742
2872,0.866971254,-2.750850677,11.01851749,-2.248962641,-10.01004982,5.865432262
2873,0.211790964,-2.946755648,11.59793663,-16.33010292,-26.95750237,5.070007801
2874,-0.356315434,-2.192015409,9.120313644,-10.97561932,-37.68580627,10.78397751
2875,0.404682398,-3.231106043,10.54406452,-1.269364357,-33.22140884,9.276818275
2876,1.182411194,-3.298677683,10.68131733,-8.951581955,-36.26126099,7.786114216
2877,1.128527164,-2.970807314,10.70619297,-4.250702381,-40.89210892,5.883477211
2878,0.718378842,-3.106780052,11.04181862,-5.089401722,-40.84108353,2.000587702
2879,0.973204792,-2.87968874,10.49884701,-0.664168537,-49.22201157,0.123947307
2880,1.699954629,-2.631532192,9.843374252,5.993198872,-48.99538422,1.184181213
2881,1.596771002,-2.859338045,9.91882515,5.250089645,-43.86489105,3.151139498
2882,1.765461445,-2.562229156,9.957769394,6.961521626,-40.10887146,2.1637609
2883,2.340270519,-2.417994499,10.27438354,4.437211514,-32.74632263,1.282650352
2884,1.945183754,-2.730174303,10.79153538,-1.428238273,-27.13014793,0.593870342
2885,1.839294672,-3.094466448,10.63200092,-7.207321644,-29.17070389,0.563910186
2886,1.978498578,-2.759764671,10.2901926,-9.985030174,-29.65790367,0.230239764
2887,1.82085228,-2.448300123,10.07367516,-21.99914742,-31.80849266,-0.713932276
2888,1.81953311,-2.249342442,9.43742466,-31.19459724,-30.69258499,-0.105076805
2889,2.199625254,-2.974644423,8.897781372,-24.57965851,-28.58088493,0.887183607
2890,2.651186943,-3.965973377,9.162348747,-13.36181641,-21.84062386,-1.007605791
2891,2.767740965,-3.914245844,9.763658524,-10.09149933,-21.21675491,-2.556062698
2892,2.897241592,-3.200118303,10.19819164,-11.17779541,-16.11997795,-3.549182415
2893,2.673722982,-2.472492695,9.796368599,-13.65436172,-13.79825211,-3.404668808
2894,2.68789506,-2.745265245,9.304800034,-11.80359364,-13.22565079,-3.607879162
2895,3.249267578,-2.962659359,8.911449432,-1.985177159,-12.27657032,-0.706360161
2896,3.255093336,-2.988130331,8.887189865,1.689804912,-9.76561451,4.109117985
2897,3.005880356,-3.292307138,9.384889603,-3.901544571,-5.758606911,3.853809118
2898,2.921242476,-3.236424923,9.068742752,-1.96533978,-8.331364632,2.353980541
2899,3.708801985,-2.057864189,8.61562252,13.52873802,-9.140849113,4.611718655
2900,4.021760941,-1.469705582,9.088769913,16.96522522,-4.446869373,6.591877937
2901,3.726617813,-2.003657818,9.435536385,9.202602386,-4.254383087,14.58163452
2902,3.385923386,-2.042328119,9.390893936,12.33549404,-2.06654501,18.01678658
2903,3.685406208,-1.988402009,9.650839806,17.29918098,6.636753559,9.928195
2904,3.696321726,-1.802623272,9.440310478,9.786956787,5.944896221,2.09041357
2905,3.728636503,-2.174987078,9.349283218,-3.293934345,3.39294672,2.65852809
2906,3.469389439,-3.025578499,9.103178024,-9.703017235,1.259985209,5.577634811
2907,3.508435249,-4.699244499,10.01065731,-2.162634611,-3.027870178,8.104148865
2908,2.556046009,-6.236959457,12.17431641,12.91675091,-14.47416496,3.30167985
2909,1.991677523,-3.846681118,12.08787632,3.594461441,-48.9382782,-12.06420231
2910,1.978758454,-2.325665712,12.72933865,-5.71871376,-84.18908691,-28.51056671
2911,2.292865753,-2.215285778,11.45059776,-12.88724899,-140.9973602,-33.81349182
2912,3.654446363,-2.05355382,7.543265343,28.20078087,-159.8079376,-41.53009796
2913,5.078814983,-1.513097763,6.646252632,17.93212891,-170.2126617,-49.34454346
2914,6.760513783,0.209098011,7.82232666,-6.432851791,-192.9139862,-50.15150833
2915,8.29739666,-0.934618771,7.482965469,-32.78092957,-211.7590637,-52.82709503
2916,8.741467476,-3.900367022,7.325475216,-33.782444,-212.8528442,-53.46463776
2917,8.561097145,-3.03869915,8.190320015,-15.34734631,-218.0968628,-57.47581863
2918,7.416460991,-1.121471882,8.606060028,-12.64665318,-224.817337,-59.55919647
2919,6.467821598,-2.125221968,8.283450127,-14.54623508,-236.6736755,-59.37258911
2920,6.89247179,-2.897439957,7.375622749,-12.05093956,-237.8757172,-56.69389343
2921,7.665474892,-3.804496765,7.312231064,-8.502594948,-228.8708496,-55.54066467
2922,7.793549538,-4.636526108,7.082023144,-8.882698059,-205.721344,-49.54284286
2923,6.821686745,-4.965699673,6.44525671,-4.084643364,-176.4742432,-42.00216293
2924,7.47594595,-4.852584839,5.822967052,3.490344048,-139.9281616,-41.06185913
2925,7.805356026,-4.580753803,5.013668537,12.38773918,-93.54990387,-36.26010132
2926,7.923648357,-4.113404274,5.037962914,26.82432175,-57.45322418,-31.02252769
2927,7.332843781,-3.533340931,5.546199322,38.38495636,-26.63932419,-24.27383995
2928,6.928428173,-2.194197178,5.883579731,42.95838165,-7.424869061,-21.62712479
2929,7.279817104,-1.850724101,6.492564201,46.22005844,2.470083475,-14.15799046
2930,7.544194698,-1.955173612,6.616201401,37.8398819,6.38130331,-5.942088127
2931,7.758786201,-2.382884026,7.714046478,20.45076561,-0.817468882,-1.75422883
2932,7.942528725,-2.695055962,6.357723236,-23.98234749,6.756906986,1.350502849
2933,8.392728806,-2.039460659,3.762479544,-49.43792725,50.98836136,2.574352503
2934,8.115353584,-1.247508883,2.459437132,-39.26937485,93.77548981,2.071252823
2935,7.689845562,-0.351680219,2.164997339,-24.02265549,114.824852,8.076442719
2936,6.946336746,1.260722876,3.633493423,-22.64066696,121.6555481,16.63492012
2937,6.141566753,1.794200182,3.522069931,-22.40678978,128.1840057,31.09070015
2938,5.57119751,0.35008812,3.949883699,-18.63778687,140.1027527,39.04784775
2939,5.799570084,-1.00615859,5.073330402,-21.38665199,157.9741364,45.66126251
2940,5.908632755,-1.24456203,5.937837124,-34.8233223,165.978241,49.89606476
2941,4.84829855,-1.871953964,6.038923264,-30.75392151,172.784317,49.80954361
2942,4.910182476,-1.90790689,6.566995621,-34.33076859,173.5634155,47.67791748
2943,5.64760685,-1.711748719,6.201600552,-28.60000038,168.3065033,45.67560959
2944,6.280647755,-2.23428607,6.456206799,-13.67332458,159.5844727,41.17567444
2945,6.522993088,-2.202172518,7.146077156,-3.429371357,151.0584259,36.54603577
2946,6.675326824,-1.552049041,8.175179482,-10.05157566,142.7942505,29.28553963
2947,7.153718472,-1.623095512,7.859743118,-21.45371246,137.6578674,21.71432304
2948,7.55683136,-2.335674286,7.915156841,-10.77805996,134.0117493,16.61717987
2949,7.187580585,-3.483688354,8.774276733,5.779143333,118.7859116,11.08166313
2950,7.693974495,-5.227286816,9.078576088,35.48065948,94.19745636,8.603473663
2951,10.46627426,-5.152197838,10.83347797,5.657552719,82.69618988,5.241733551
2952,12.79300976,-3.784083605,9.234932899,-0.789201915,59.58528137,15.41478062
2953,12.75313377,-3.767551899,9.549795151,-18.89574432,43.00312805,22.96827126
2954,11.52776337,-3.18905735,8.798967361,-31.03693962,20.6153698,25.05257225
2955,11.41182137,-3.249954224,8.925206184,-3.312936306,24.96757889,28.68491936
2956,11.19598389,-1.428794026,5.602048874,7.082313538,-4.540133476,33.5881424
2957,9.83809948,-0.99143523,3.322988033,26.13748932,-15.63134575,38.93109131
2958,8.860902786,-2.225526094,3.498559952,5.412273407,15.16239834,39.28274918
2959,7.998321056,-2.552798271,5.443340302,-14.81742287,74.62397766,37.28481674
2960,4.376243114,-3.065902472,9.056139946,-12.03962517,142.315155,26.43420601
2961,-0.749978542,-1.319693327,6.934623718,17.22384453,119.9660416,15.7293148
2962,0.715182304,-3.607781887,10.16361904,29.37318802,107.2014236,15.44249821
2963,3.13698864,-6.101724148,9.914321899,13.08785248,108.7326508,17.20980644
2964,3.141104221,-3.806342125,8.35077095,57.03110886,100.5157318,16.59763908
2965,2.034318209,0.130746841,8.592198372,69.94992828,97.27467346,16.91021538
2966,0.613339186,0.474230796,9.882918358,37.46146774,93.87046814,20.60666847
2967,0.006630234,-0.990350187,10.11851788,27.67884636,77.78552246,24.6551609
2968,-0.656311572,-1.959697247,10.56746578,13.71188354,68.69039917,21.02523994
2969,-0.837959588,-1.888447881,10.7555666,-0.592198968,59.43268585,13.52144718
2970,-0.819948971,-1.718384624,9.631168365,-6.288764,47.97512817,4.14997673
2971,-0.190489188,-1.827694058,8.832071304,-15.0172739,35.83885193,-0.474561006
2972,-0.583193004,-2.365017653,9.185855865,-11.59454536,16.33701897,1.436631203
2973,-1.228578568,-2.883172035,9.384542465,-12.58345222,6.741965771,-4.308891773
2974,-0.635953784,-2.049204826,10.04833031,-6.522866249,6.616589546,-7.826515675
2975,0.169164732,-1.502990484,9.430417061,0.545390546,2.376327515,-7.741990566
2976,0.565146446,-2.533144236,10.47445393,-0.868411243,0.749088109,-1.595811963
2977,-1.533255816,-3.004729271,9.706124306,4.20249033,-25.35969734,-1.461227059
2978,-1.086824656,-3.170697689,9.580400467,-2.132798195,-35.77897263,-4.862547874
2979,0.425064564,-3.368567705,9.595172882,-7.917857647,-32.26210403,-4.416664124
2980,0.250839382,-2.475515604,10.04121017,-6.376740456,-32.09907913,-1.423097968
2981,0.569644213,-2.501955032,10.56997299,-12.00354195,-35.92494965,1.111833692
2982,1.03162694,-2.559442997,9.907911301,-7.000048637,-39.50098419,3.72175169
2983,1.066224456,-3.287899017,10.44264221,-0.725463986,-37.46675491,1.39641118
2984,1.017823219,-3.457850218,10.36064148,-2.408956289,-37.14749908,-0.414511532
2985,0.84438616,-3.101772547,10.00849152,0.6571486,-39.00537872,-3.831661463
2986,1.102521777,-2.801106691,10.32159042,-5.535356522,-42.42286682,-5.360535622
2987,1.488970041,-2.991583109,10.23260593,-11.50140667,-39.17002487,-4.796537876
2988,1.592004657,-3.109782696,10.095891,-5.313771725,-37.07891846,-5.044452667
2989,1.671010971,-3.217728615,10.36868763,0.595638156,-31.14920044,-4.555791378
2990,1.667267919,-3.427343369,10.15728188,2.763292313,-29.55140877,-2.759700298
2991,1.767228007,-3.46546793,10.30149651,5.264829636,-29.4044323,-3.605012417
2992,2.095691204,-3.211399317,10.55743313,5.763729095,-31.22975349,-4.018838882
2993,2.189848423,-3.089405298,10.28693104,6.646388531,-33.23279572,-3.730786324
2994,2.16091466,-3.334519863,10.04471874,15.08912277,-30.32048798,-3.831252575
2995,2.200752974,-3.522565126,9.984664917,21.18215942,-28.2000618,-4.071975708
2996,2.485605955,-3.299652815,9.796938896,27.69617271,-27.03751945,-0.853214681
2997,2.150655746,-3.049193382,9.806687355,33.36834335,-25.16519165,0.592098773
2998,2.266026258,-2.594925404,10.03487301,30.63342857,-24.02619553,-1.156803727
2999,2.856761694,-2.331548452,10.15913773,24.50494766,-18.11880302,-1.503854632
3000,3.014609098,-2.157549858,10.54280281,16.55527687,-14.42019081,1.965310574
3001,2.880822659,-2.145540953,10.46582985,10.78200722,-15.92698383,4.018695354
3002,2.70211935,-2.272802591,10.23397255,12.1105442,-14.26189232,2.440291405
3003,2.883505821,-2.323162317,10.32157803,10.49009323,-9.783176422,1.750853539
3004,3.090455532,-1.711373568,9.691716194,4.58437252,-5.253536224,1.722499013
3005,3.449889898,-1.516223907,8.98247242,12.83276939,0.415879995,2.559395075
3006,3.269652128,-2.120099068,9.17598629,13.1021471,6.280097485,5.422224998
3007,2.877708912,-1.794249654,9.257274628,10.80655766,6.064900398,8.505356789
3008,2.766222477,-0.834129035,9.291723251,17.47262383,5.654651165,6.605537415
3009,3.034828901,-1.181926012,9.629804611,20.4980545,3.410810232,6.10373354
3010,3.054306269,-1.977995038,9.517477036,21.95493507,2.016657591,4.00492382
3011,3.054148674,-1.869297981,9.474630356,30.71002388,3.040352583,4.454537392
3012,3.171956778,-0.64897424,9.956680298,30.72490883,5.8218894,-0.325147957
3013,3.450759172,0.053495042,10.24883842,18.49542427,7.246092319,-6.533488274
3014,3.606648207,-0.535786033,10.16773319,0.03693993,8.537069321,-6.535787582
3015,2.914617538,-1.587359428,9.774951935,-16.30546951,2.248035192,-1.824035764
3016,2.319899797,-1.291519284,10.12277222,-26.01974869,-9.823361397,-2.098178864
3017,2.26885581,-1.596186399,10.8698473,-28.17145538,-27.95214653,-0.24404557
3018,1.761254311,-1.533341289,13.58153534,-48.41252136,-50.69979858,-2.344197989
3019,1.370752931,-1.465606928,12.9164257,-78.2940979,-101.3820114,-1.378337264
3020,2.199817657,-1.649200678,5.233492851,-15.13366032,-139.3873749,3.759135485
3021,3.764750481,-4.549373627,6.751695633,-28.91757584,-122.4103775,-17.52207947
3022,5.36964035,-3.130342007,7.152300358,-24.93531418,-143.9638367,-31.85391235
3023,6.659579277,-3.093533278,6.861115456,-6.531911373,-170.1870422,-36.76934052
3024,7.04193449,-2.224770784,7.937719822,-8.559212685,-187.1570587,-39.55919266
3025,7.287092209,-1.703132272,7.935405731,-12.62846756,-198.2030792,-42.35580444
3026,6.915072441,-2.948646784,8.540323257,0.102966011,-204.1056366,-42.51774216
3027,7.010182858,-2.996291876,7.799352646,26.43416977,-204.6491547,-40.47241592
3028,7.548041344,-2.305111408,7.782560825,40.82341766,-208.360733,-35.05039597
3029,7.818963528,-1.565956831,7.997621059,36.45240402,-204.9611359,-30.57847786
3030,7.129473686,-2.676642418,9.308382034,19.51216316,-195.2226563,-27.47806549
3031,5.888445377,-3.682367802,9.874559402,17.39814186,-187.7187805,-23.58250618
3032,6.338359356,-3.423130035,9.334062576,27.60590363,-185.0079193,-19.66746712
3033,7.227921486,-2.433016539,8.022115707,39.6850853,-175.7562256,-16.19811058
3034,7.945457458,-1.9883461,6.653980255,32.84155655,-143.3374481,-17.40240669
3035,8.537230492,-1.703680992,5.510882378,24.33988762,-96.38373566,-22.30349541
3036,8.735532761,-1.530388594,6.081999302,13.51642323,-60.00662231,-28.46805573
3037,8.05933094,-1.16181612,6.708153248,4.348232269,-33.03200912,-27.50211525
3038,7.6211586,-0.735740364,6.162862301,5.145777225,-15.66153812,-21.35282516
3039,7.600768566,-0.889191985,5.58743906,1.784945011,-2.340786219,-19.14793777
3040,8.000968933,-1.53064239,6.042401314,-14.83539104,17.03935051,-16.82417107
3041,8.445513725,-1.541446924,6.117679119,-28.10652733,38.91595459,-13.94667912
3042,8.474815369,-1.801518559,6.650291443,-28.76727867,50.74091721,-6.433655262
3043,7.879550457,-1.49168539,4.853610516,-32.59623337,71.65142059,-2.58884716
3044,7.79741621,-0.829851568,4.35254097,-46.73690414,103.6233978,3.001490593
3045,7.284759521,0.174650118,2.758862257,-41.1200943,122.3594971,13.14924526
3046,6.109187603,0.327819765,2.988709688,-14.09410763,143.2392731,24.46344948
3047,5.390727043,-0.67038852,3.89306426,-2.224177599,157.2622681,30.27688026
3048,5.184826851,-0.321004778,4.967431068,-0.569509208,172.4946747,34.48021698
3049,4.946124077,0.683989048,6.550212383,-8.807338715,183.5807648,41.9649086
3050,4.309610844,-0.283584565,7.290543556,-19.94807053,183.740387,47.97846603
3051,3.940968752,-2.138590574,7.026166916,-22.58868599,186.6727905,47.83865738
3052,4.116306782,-2.654125452,7.429616928,-19.9781208,179.8232117,39.90987015
3053,5.206939697,-1.657057881,7.323124409,-14.05366802,168.3220215,32.12485886
3054,5.838071823,-0.94467169,6.983378887,-5.580414295,157.3315582,26.54777336
3055,6.177783012,-1.768153191,7.423873901,-10.40001106,152.7679291,21.29794502
3056,6.399122715,-2.073078871,8.357242584,-22.36659813,152.819046,17.33465195
3057,6.194268227,-1.322095275,8.400672913,-24.49261856,144.7798004,14.08253002
3058,6.17100811,-0.891836345,9.386704445,-23.95872116,126.453743,12.10730362
3059,6.305143356,-2.347678661,9.160772324,-20.87283134,112.1899567,7.554706573
3060,7.180763245,-4.045423985,9.605428696,-15.93872833,91.24025726,2.863003731
3061,9.198976517,-3.90040493,9.277087212,-28.50696373,66.63732147,2.308841705
3062,10.36605072,-2.759290457,8.706580162,-21.70169258,53.49998474,8.133390427
3063,10.06156921,-1.082671523,6.894784451,-7.687715054,51.5184021,10.21738529
3064,8.510499001,-1.199351311,6.358881474,29.41261482,82.21446991,10.13974857
3065,9.887126923,-3.997712374,9.363292694,38.15968704,89.33531189,11.85126209
3066,9.712856293,-5.061783791,10.50267982,13.63621807,73.01570129,23.35907173
3067,6.217630863,-4.274918079,8.737436295,4.032939911,44.09894943,21.66552544
3068,4.214909077,-2.943186522,7.295113087,10.68565083,15.14412785,19.04669571
3069,3.987929583,-1.28707099,7.160878658,28.26794434,28.34474754,17.90848732
3070,2.1175735,-2.01616931,13.19369507,10.46298599,90.74964142,18.67747307
3071,-0.120181791,-3.118670702,11.02580166,-41.70422745,50.24100876,26.97849274
3072,0.791674316,-2.832947493,7.351479053,-17.18930054,61.96088791,23.56741142
3073,1.839640975,-4.425308704,9.181718826,6.61500597,70.02592468,17.74088287
3074,2.217491388,-4.64469862,8.776387215,-1.43983531,65.31225586,19.88793564
3075,0.550706208,-1.956342101,9.327494621,19.81610107,56.74711609,17.64225769
3076,-0.115965903,-0.757059693,10.60169601,9.853130341,54.83633041,17.19828796
3077,-0.321224093,-1.199342489,10.64546204,15.71982765,42.96477509,18.67800522
3078,0.458387971,-2.590283155,10.97834778,12.6889801,45.70492172,15.03386974
3079,0.014943387,-1.919361949,9.835881233,9.609390259,40.03339005,11.51041508
3080,-1.140101433,-1.138656735,9.193748474,5.863180637,26.91817284,9.529878616
3081,-1.588890076,-1.632709622,8.737897873,-1.024758697,12.88951302,8.334533691
3082,-1.669288397,-2.401310921,9.282784462,-7.688902855,4.004444122,6.65438652
3083,-0.768382311,-2.240688801,9.566738129,-10.4481926,-1.695215583,2.124734402
3084,-1.061242342,-2.192442417,9.617295265,-20.26612091,-7.732857704,2.294075727
3085,-0.667120993,-2.42964077,9.8798666,-22.71171379,-7.095160961,3.154991627
3086,-0.333416253,-2.042844057,10.14448357,-21.80224991,-11.05607128,1.558126211
3087,-0.503056347,-2.567998409,10.13728046,-23.4924221,-15.38823509,0.236815661
3088,-0.17707932,-3.609768629,9.895307541,-23.10385132,-23.58083725,-0.989825785
3089,-0.006188106,-3.908957005,9.74833107,-15.55158615,-21.29025269,-3.521005154
3090,-0.213307634,-3.325026035,10.2790947,-6.177471161,-24.44094276,-4.682659149
3091,-0.122522265,-2.746441841,10.52565002,3.24217248,-26.20621109,-2.916768789
3092,0.064817339,-1.98421979,10.32430935,12.53446102,-30.08321953,-5.147941589
3093,0.545140862,-2.936727524,10.56800652,14.50395679,-32.64601898,-3.84106493
3094,0.460670918,-4.190086365,10.52595901,6.678216457,-36.11402893,-2.429734707
3095,0.548745811,-3.853694677,10.28496075,14.94495583,-31.27439499,-2.041103601
3096,0.544294953,-2.830724239,10.39479923,21.05763817,-26.56116867,-1.783125043
3097,0.546384037,-2.333663464,10.49133682,20.38710403,-25.23326874,-1.272078514
3098,1.12721467,-2.567855597,10.75829792,17.34580612,-27.92568779,2.585624456
3099,0.98293978,-2.898749828,10.89506054,13.40825081,-26.42226219,1.833465099
3100,0.851923108,-2.38997364,10.98082638,9.22251606,-25.84169769,-1.009866476
3101,1.507853031,-2.179858685,11.00056076,7.948456764,-27.59274483,1.008624554
3102,1.38394928,-2.427774906,10.92479706,5.621089935,-29.60973358,1.74515903
3103,1.097299576,-2.439679384,10.45094872,5.122268677,-29.98062325,-0.348846138
3104,1.276447058,-2.645571709,10.48550034,5.247953415,-27.39748383,-2.096565008
3105,1.653994083,-2.398485184,10.51012039,0.723726809,-24.70343208,-1.826375127
3106,1.525904894,-2.012943268,10.29990101,2.987087965,-25.17299461,-0.478542417
3107,1.680118322,-1.889154673,10.52341747,0.852731705,-22.89678574,1.644536734
3108,2.043783426,-1.925066948,10.2841568,0.693266153,-17.65966797,4.577577114
3109,2.102337599,-3.175259113,9.93614006,4.356936932,-16.15142632,7.834032536
3110,1.982764602,-3.475894451,9.676165581,3.373630762,-12.75419235,2.819396973
3111,1.888967633,-1.86863327,10.1806078,-7.594852924,-7.045178413,-3.104727507
3112,1.707316995,-1.278904438,9.580099106,-15.20999146,-5.012800217,-1.618013144
3113,1.943535328,-1.917059064,9.611902237,-19.28754425,-2.301694393,0.735610485
3114,2.14526248,-2.547955751,9.611699104,-15.44416428,-5.704618454,4.386735439
3115,2.20159483,-2.375084162,9.897031784,-6.75609684,-9.009823799,8.052362442
3116,2.446364641,-1.296440601,10.34836006,-5.282226086,-12.23152065,9.070752144
3117,2.62286377,-1.558238387,9.82924366,-10.3664484,-15.50103569,10.29573822
3118,2.510458708,-2.38933897,9.203152657,-13.063591,-11.79424858,11.21184731
3119,2.497548103,-2.649260283,9.189403534,-8.350039482,-13.43482113,12.24880409
3120,2.694884062,-1.812248588,9.506281853,1.055392027,-14.05720329,12.76730061
3121,2.831819534,-2.504057646,9.197352409,-9.810564041,-15.63084221,12.46269321
3122,3.015140533,-3.133691788,8.950858116,-17.11954498,-11.05947876,13.05421925
3123,2.672587872,-3.416126251,8.944116592,-8.5710392,-12.00308132,14.04086399
3124,2.328992128,-3.3685987,9.674711227,10.89626789,-17.88948059,14.59823513
3125,2.410156012,-2.665416002,10.73454285,21.9561348,-26.70484734,7.209878445
3126,2.450741291,-2.323564529,10.68264389,23.93428993,-40.10120392,-1.916619182
3127,2.089200735,-2.561923027,11.22076988,20.49865532,-60.16274643,-9.578591347
3128,2.029559851,-1.814122796,12.31810665,7.935121059,-103.585144,-12.06580639
3129,1.516533494,-2.970195293,12.8762207,-7.386789799,-142.1551514,-8.190997124
