PacketCounter,Acc_X,Acc_Y,Acc_Z,Gyr_X,Gyr_Y,Gyr_Z
899,3.325474977,0.571332097,0.140348583,65.69067383,-28.02900314,-9.65072155
900,0.318688363,2.540048361,4.698316574,90.23518372,-71.70397186,-8.97821331
901,-0.254109502,1.36796999,5.889489651,63.5908165,-89.08704376,5.057908535
902,-2.676865578,0.260537714,4.980196953,-9.031461716,0.924023032,-0.789396286
903,-2.913122892,0.307169527,3.47274828,-39.81019592,131.1429596,-26.18827438
904,-4.159208298,1.352466226,11.13108444,-54.24995804,237.5990601,-46.70254135
905,-1.575728297,-0.099390402,15.83606243,-129.2612915,177.6534424,-35.69036865
906,-0.379316449,-3.583897829,14.56353474,-146.9080811,-102.4435272,31.61199379
907,-2.564061165,-1.374217749,10.19613171,-16.10118866,-38.53462982,6.290254593
908,1.555368185,0.462689877,11.01790237,76.92964935,-28.63347054,14.08373547
909,0.312164694,2.732726574,10.27327919,62.371315,-43.2718544,18.28872108
910,0.514016569,1.93267405,10.79329109,39.04896545,-65.22145844,28.19323158
911,0.363051355,-0.425055861,9.820437431,-2.014996529,-67.64257813,5.481072426
912,-0.215684861,-1.229789853,8.832864761,-23.83195686,-28.91810608,-17.96382141
913,-0.373845011,-1.909340858,9.597106934,1.25707376,12.74293327,-20.36262894
914,-0.260538816,-1.446233869,11.40801525,30.47936821,1.890436888,-17.10692406
915,0.692331314,0.565364122,11.90108204,34.1949501,-23.92898941,-9.224645615
916,1.654945254,2.044081211,11.46443367,17.54561043,-34.83116913,-0.716205299
917,0.875490189,2.779931545,10.93136597,8.450972557,-22.58303452,4.077262402
918,0.132578135,2.578149557,10.97521591,14.49127483,-20.41470909,11.40920067
919,-0.184460714,1.337828755,11.24831772,35.21203995,-37.84833527,15.32736301
920,-0.136627957,0.589160264,11.93279076,50.97153854,-48.73340988,14.26949978
921,-0.055321991,0.924074054,11.9526577,49.05439377,-41.35674286,11.30791473
922,0.59493655,1.556609988,12.24430943,34.66207504,-23.27465439,10.39932823
923,1.756084204,1.918489218,12.00942612,21.65718269,-5.743456364,11.93571854
924,2.0545187,2.105923653,11.79667091,12.98136806,7.336924553,7.923624039
925,1.260303617,1.828052044,11.61458874,4.273870945,6.779280663,4.256236553
926,0.26878947,1.096514821,11.60328197,-2.894082069,-4.22942543,5.520504951
927,-0.030181114,0.881677747,11.85909939,-5.698779106,-12.79200363,6.150107384
928,0.356532633,1.254340291,11.92007446,-0.593139648,-17.93271637,5.278905392
929,0.766560137,1.751183629,11.40576649,3.171900272,-18.77355766,5.324881077
930,1.025386333,2.079626799,10.71413612,-4.235487938,-17.30334663,5.564091206
931,1.143461227,2.021255255,10.20444202,-16.32290459,-16.5040493,5.301423073
932,1.199890137,1.95662117,9.825807571,-22.66462517,-15.46679592,6.209797382
933,1.258509398,1.84361732,10.03295231,-34.65070724,-7.908405304,7.616208076
934,1.478998899,1.286017179,10.4272604,-52.02574539,-2.566609859,7.65089035
935,1.64116025,0.224354625,10.59741592,-58.84202576,-0.658574641,2.676489592
936,1.2633816,-0.773130417,11.32790279,-56.07638931,0.940169454,-4.020265579
937,0.928429365,-0.673996031,11.93605804,-46.95238876,-8.364729881,-8.508532524
938,0.965615988,-0.145398065,12.17402363,-34.24036407,-26.75053406,-7.362548828
939,1.262571812,0.595017076,12.03377056,-27.2814064,-38.66284561,-3.879637957
940,1.614400387,0.500034153,11.70850945,-22.85521126,-41.23223877,-1.50085187
941,1.829187989,-0.063536867,11.2558403,-20.25468826,-36.8295517,-0.424533188
942,1.791296721,-0.287959009,10.59051228,-18.85029602,-31.78925133,0.318642735
943,1.829828024,0.085643008,10.2229147,-19.11018562,-29.16733551,1.341419816
944,2.033468008,0.555569887,10.2329464,-26.44191742,-27.54862022,-0.696131051
945,2.368552446,0.588409901,10.04260063,-30.01262665,-29.27365875,-5.662402153
946,2.719948769,0.203451321,9.756834984,-27.86843491,-30.87901878,-8.06724453
947,3.197978258,-0.186811119,9.545315742,-20.90497589,-27.60651588,-9.689917564
948,3.224232197,-0.403892726,9.696493149,-16.05616951,-25.80757713,-12.81567669
949,2.995169401,-0.563613355,10.27635384,-16.93236351,-26.69089508,-13.64361572
950,2.464574099,-0.428212613,11.47410297,-18.35271263,-43.77569199,-12.33152485
951,2.242525578,-0.100758761,12.03029537,0.596651256,-68.03033447,-5.433887005
952,2.264434099,-0.508943021,12.17425919,17.67152405,-112.2707062,4.510633469
953,3.367396832,-1.132340312,9.24401474,24.46367455,-157.0749664,8.142395973
954,5.009093761,-1.71947062,6.168680668,33.89677048,-139.6795502,-1.452915907
955,5.158766747,-2.058866024,7.043076515,32.86931992,-94.70619202,-18.1640377
956,5.691650391,-0.827928901,7.779247761,36.92370987,-79.74996185,-27.54803467
957,5.485575199,0.41846472,7.762073994,46.72157288,-88.759758,-20.24051476
958,5.690090656,0.73850441,7.713595867,71.30440521,-102.6914749,-5.901389599
959,6.4979496,0.454788804,7.78864193,93.22345734,-106.6661224,4.891340733
960,6.896173954,0.735475898,8.461707115,94.20881653,-97.18321228,10.48099327
961,6.237248898,1.509985805,8.947029114,80.14634705,-56.32580185,7.460804462
962,4.956767559,1.704605699,9.181753159,58.07431412,-13.49901104,-1.244575143
963,4.042918682,1.787855148,11.13625908,22.32856941,2.257923365,-2.179119349
964,2.524615765,2.320086718,11.36674309,-17.58210182,-28.76314354,9.788438797
965,2.500015497,2.432700634,10.23423672,-15.37764645,-80.43496704,28.54812813
966,2.390962601,1.695027232,8.496498108,-9.682782173,-95.30245209,37.74969482
967,2.485010624,0.108695135,7.964856625,-7.395709991,-78.5046463,28.74034691
968,2.299038172,-0.395352572,7.875004768,-7.080952644,-76.96511078,16.77776909
969,1.592684269,1.148860693,7.08794117,17.14578819,-78.87429047,11.7385025
970,1.466097593,1.845832109,7.69255352,37.63399124,-55.70765305,6.161663055
971,2.081000566,0.995583713,8.829751968,23.72122765,-46.04356384,-1.352517009
972,2.870831013,0.393429518,9.012354851,24.07173157,-52.68097687,-11.93361568
973,3.206421614,1.245194316,8.749001503,25.57225227,-48.31437302,-18.27195358
974,3.053844213,1.83052671,7.767258167,18.05939674,-26.5608387,-20.63018799
975,4.269324303,1.860386372,7.075647354,6.780171871,-14.31248856,-13.65922165
976,4.920433521,1.548167944,6.790946484,-13.30270004,5.841770172,-10.51656055
977,4.991129875,0.371103406,6.53757906,-23.3826828,29.5289402,-13.77749443
978,4.737903595,-0.66635555,6.398087502,-16.20677757,49.1768837,-18.69537163
979,3.908114672,-0.933871686,6.003783703,3.146873951,81.89722443,-18.61754036
980,4.139224052,-0.177640527,5.459906578,21.68140793,98.13935852,-15.72687244
981,4.976171017,0.249435678,6.329767227,41.92934036,119.2909317,-15.97879601
982,5.75019598,0.931659281,7.344853401,45.66238022,135.4828339,-17.21528244
983,6.068660736,1.380511761,7.895989418,43.9869957,142.3921967,-19.98356819
984,6.646314144,2.532499313,7.582907677,42.33606339,170.46138,-24.23543739
985,6.334149837,3.556181431,9.424803734,25.22452736,185.4867859,-21.26217461
986,5.992595673,3.144918919,11.07149029,11.53398609,179.0997009,-8.614902496
987,5.887949944,0.926865399,10.2800951,4.437010288,154.3240204,-0.494494647
988,6.555748463,-0.447505742,9.302372932,17.83012009,141.6818542,-0.964451432
989,5.801515579,0.533069909,9.426682472,38.4659996,115.9120102,-8.898205757
990,4.852129459,2.312536478,11.49142361,17.43196297,90.9071579,-16.83681488
991,7.136214256,5.090761185,11.02446842,-50.12976456,106.3525009,-37.73265839
992,9.377592087,5.773152351,12.40163708,-61.06020355,84.29017639,-47.09859085
993,8.698328972,4.946046352,10.6358099,-66.872612,86.43404388,-47.1231308
994,7.860924244,2.563243389,9.616392136,-53.13511276,68.67603302,-25.79341698
995,7.591547012,0.018958721,7.9861269,-28.93736649,-5.241350174,-11.42897701
996,6.079205513,1.847195625,6.135504723,74.18948364,-130.6871796,29.68285561
997,7.953167915,0.987925291,5.697528839,218.5785217,-230.8141937,95.08850861
998,7.674538136,-0.435524285,1.061276436,184.9412994,-174.6681213,76.44850159
999,3.728702545,1.08695364,-2.536713839,101.4737015,-6.016015053,2.964951038
1000,2.636947155,2.473084688,-1.075662851,-40.55213928,110.6825027,-44.3911972
1001,-2.136991262,5.069251537,-1.444283009,-131.261734,179.2817993,-33.29705048
1002,-6.506958961,4.794480324,3.584561586,-78.33963776,229.7666931,-24.83140755
1003,-8.096641541,4.515568256,12.07198906,-127.1340714,332.2857666,-41.03050995
1004,-7.957518578,3.236400366,14.49195194,-225.6230774,506.6754456,-94.44245911
1005,-5.01753521,-4.605523586,24.75406075,-295.8847046,191.451004,-53.52262878
1006,-7.026906967,-5.443732738,7.932368279,-140.9389343,-39.70899963,4.761639595
1007,-2.995381355,-2.084276676,10.93420029,44.78528976,-37.83676529,2.630129576
1008,0.945635259,0.836951017,11.47190762,81.29206848,-23.41677856,19.82623672
1009,0.731231272,2.721997976,11.91423512,48.7636795,-35.10539627,15.89575958
1010,0.417103171,1.784621119,10.93597221,-0.520670235,-34.74282074,12.82968616
1011,-1.011042714,-0.253476948,11.06994057,-31.83499718,-19.89980125,6.364628792
1012,-2.958750486,-1.967249393,10.94346333,-24.48966599,-24.74176025,8.394579887
1013,-2.423781872,-1.64899981,10.6914854,-3.836685896,-20.97689819,-0.76924026
1014,-2.192305326,0.357621968,10.7015152,8.568533897,-27.79509735,-10.22935009
1015,-1.508397698,2.112138987,11.08530045,-1.697154045,-29.09013748,1.627327204
1016,-0.166675121,3.30532217,10.78575039,-20.08460617,-31.24662399,8.613740921
1017,0.013139512,3.410275698,10.58086205,-5.247624874,-15.62830925,4.602408409
1018,-0.064126238,1.545782089,11.70378494,16.83378601,9.194594383,5.201607227
1019,-0.833746552,-0.703263283,12.13125706,28.48703957,7.212040424,7.110049725
1020,-1.693596721,-1.228729963,12.15252686,21.60426521,-4.325710773,3.333632946
1021,-1.897092104,0.002638083,12.23935604,19.74268341,-11.68356133,1.402662873
1022,-1.559859633,0.665542245,12.67729473,16.42962265,-8.793540955,-1.270109534
1023,-0.666347861,0.431826383,12.79003334,11.93366623,-11.08514881,-3.152298927
1024,0.24640505,0.434005648,12.48526096,5.279376507,-12.87119579,-0.5014714
1025,0.17110838,0.862884521,12.19944286,-6.792531013,-12.50937939,2.736123323
1026,-0.605201006,1.539505363,12.03300953,-14.6431675,-16.99740028,4.03578186
1027,-1.097330213,1.987594247,12.00702381,-13.74953842,-29.54818726,3.641787291
1028,-0.678072035,1.709022045,12.2246933,-8.410855293,-41.83468628,3.868048906
1029,-0.084882632,1.071786642,12.20311165,2.313245535,-42.83060837,5.81170702
1030,0.534750402,0.756207526,11.65496826,10.04774666,-38.62180328,5.940944672
1031,0.434470952,0.284777641,12.00031948,5.595634937,-42.07071304,3.090582371
1032,0.333039641,0.631298959,11.21837044,-1.417762876,-45.7525177,0.822141588
1033,0.35499844,0.895106077,10.67632294,-6.670138836,-34.13932419,-0.896256149
1034,0.442377269,0.433214277,11.04789257,-11.33450985,-36.45326614,-2.835442781
1035,0.776699901,0.317779243,11.39720631,-16.61019325,-54.4160347,-5.176744938
1036,1.342119217,0.752576888,10.85236073,-22.18681717,-68.12592316,-5.737208366
1037,2.103732109,0.93326509,10.60468483,-17.99868584,-77.01108551,-6.837487221
1038,2.422716379,1.157976866,11.0017662,-19.21019173,-82.47331238,-11.05669117
1039,2.194764853,1.212484241,11.37908554,-28.50524712,-79.61017609,-11.42960167
1040,1.468410254,1.034958005,12.13269806,-25.89591026,-79.32447815,-5.493226528
1041,1.245824456,0.615530431,11.63435841,13.23432541,-116.9248352,3.008147001
1042,2.352175951,0.088543482,9.675868988,25.25045204,-168.0680847,7.83744669
1043,4.235284805,-0.198829114,7.271158695,24.90347672,-186.1171112,12.46055222
1044,5.489077091,-0.465602309,7.570930958,18.86539459,-167.7131348,12.38728905
1045,6.304239273,-0.20927009,8.143899918,19.41576767,-157.8497162,5.077063084
1046,6.376442909,0.021628074,8.433319092,24.16100502,-150.827713,2.747002125
1047,6.013368607,0.119708978,8.624456406,19.58641624,-137.7651215,3.980658293
1048,4.961838245,0.23764728,8.316781044,17.29951286,-121.564064,4.155157566
1049,3.99820137,0.268586397,8.604510307,17.34923935,-112.8923569,8.196590424
1050,3.976568937,0.927680314,8.054109573,16.77381706,-104.2976685,14.17733192
1051,4.231978893,1.245988965,8.129238129,12.1154623,-86.11629486,11.6126318
1052,4.521532536,0.504921317,8.055469513,14.35374546,-82.24472809,8.439779282
1053,3.392936468,-0.140127093,8.700205803,17.1503067,-65.71303558,7.381949902
1054,2.381319761,0.497850299,9.113381386,22.88210297,-62.96108246,8.198583603
1055,1.7825495,2.097717285,9.500916481,30.9777317,-66.82925415,8.539740562
1056,1.414026976,3.403286219,9.2602005,32.30189896,-71.05751801,9.338817596
1057,2.426622868,2.861152887,9.27149868,22.6854744,-67.75806427,10.23944759
1058,3.97813797,1.339372396,9.02597332,9.740681648,-59.1763916,8.254535675
1059,4.872356892,-0.374215305,8.837207794,-1.210259318,-43.6594696,1.536548138
1060,4.304534912,-0.873089314,7.681043625,-13.91879559,-23.61374092,-4.046214581
1061,4.358608723,-0.018456638,6.904970646,-19.43648529,-1.477957726,-10.27374458
1062,6.219387531,1.116010666,7.584912777,-22.11643982,8.950787544,-15.79631996
1063,6.585685253,1.733673692,7.465089798,-23.0751133,32.71421432,-18.23923492
1064,6.047079086,1.437139869,7.883788586,-16.76571846,35.82254028,-14.99679184
1065,5.593041897,0.799230576,7.055857658,-25.98483849,59.55260468,-12.13350964
1066,5.095421791,0.370883763,6.084111691,-13.49198341,93.99523163,-8.211643219
1067,4.384529591,0.114935063,6.722318649,-14.8219614,102.2062149,-4.543851852
1068,3.897430182,0.876141012,6.346271515,-17.45788002,127.4039001,-3.815055132
1069,3.453554869,0.744088173,7.261016369,-14.99770927,153.1506042,-8.985571861
1070,3.948603392,0.573437035,8.005476952,-10.14698124,158.3364563,-13.21762943
1071,4.499764442,0.596178591,8.907155991,-15.53081703,166.5670013,-13.92878914
1072,4.834387302,0.909369588,9.623271942,-23.95650291,175.5571289,-15.63288116
1073,5.223133564,0.797395706,10.44092083,-44.66184998,169.2542877,-16.48036575
1074,5.514616013,0.512720108,10.28142166,-54.36462784,168.2126923,-11.88020706
1075,4.539534569,0.225392669,10.11988926,-50.33249664,156.530899,-4.430087566
1076,3.775856733,0.040001325,9.754089355,-30.16279793,140.7790375,2.272915363
1077,4.179681301,0.384810597,9.417419434,-8.875514984,114.2093506,10.11780834
1078,5.149986267,0.435112119,9.993177414,0.085454792,121.0098648,5.943151951
1079,5.645774841,0.03953715,11.17899609,-15.44094086,123.89608,0.185478151
1080,6.519096851,-0.649525583,12.43257999,-35.42386627,121.7576447,-7.568343163
1081,6.951374054,-0.638560593,12.40901661,-22.55037498,131.3300323,-13.97697926
1082,7.174181938,0.439388394,10.9594841,2.262624502,131.5495605,-12.03675652
1083,6.265025139,0.835756779,10.02656269,-10.44365692,105.9569397,-3.320582628
1084,5.96104908,-0.626292408,8.327799797,-17.80196381,82.51490784,1.568490624
1085,5.430152416,-1.033151627,7.186980724,15.40523529,62.22665024,-1.116569757
1086,3.951835155,-1.618197083,7.11873436,54.78813171,50.72752762,-9.428836823
1087,1.324252367,-1.231032372,5.424136639,77.90820313,28.02221298,-9.089029312
1088,-1.464186192,-0.266128331,2.486055851,88.10308838,1.032559991,-13.35655022
1089,-4.039784908,0.268170953,4.449968338,115.9353333,-3.321274519,-25.49650955
1090,-5.220686913,1.238385916,5.889837742,87.74995422,1.094711781,-20.27874374
1091,-6.888032436,3.37519455,6.270226955,6.053934574,45.37608719,-8.696307182
1092,-6.964537621,4.643067837,13.75777531,-69.57202911,43.82801056,16.99021721
1093,-4.172740936,0.027466774,14.83343792,-146.8132629,-6.212623596,31.37338066
1094,-0.775570571,-3.668535471,16.39910507,-167.5985565,-37.5803833,-1.559488773
1095,-0.215778619,-0.756440163,10.33689404,-87.30934143,-40.41553497,-6.279401779
1096,1.811775923,-0.630679131,10.83459282,-1.069646001,-43.00320435,19.27153778
1097,-0.151970029,-0.555711269,10.65748405,45.69028473,-34.44275284,18.73235893
1098,-0.63806355,0.567676187,11.82631302,58.62265396,-36.41012573,15.53371525
1099,-0.326695442,0.501511633,11.09870625,22.35672951,-46.70738983,8.410337448
1100,0.016929764,-1.044923902,11.55878162,-40.16822433,-45.63534164,-0.302861303
1101,-0.569690943,-3.160623789,11.47192383,-52.57495117,-22.48112488,1.454132795
1102,-1.567261338,-0.4462488,10.10503292,-12.09397984,-8.468396187,-2.723515511
1103,-0.782188296,2.066868067,10.28269005,7.586706161,-28.49528885,-10.08932495
1104,-0.561070502,3.580263138,9.715393066,-13.75559902,-39.91905975,-16.66355896
1105,-0.525994778,4.014584064,8.727530479,-32.40102005,-36.61501694,-11.39569187
1106,1.500617862,2.170277119,9.230426788,-33.97848129,-19.58225822,6.150353909
1107,2.351716995,-1.635961294,10.19687748,-19.90928078,-17.63228989,16.28457642
1108,0.94497484,-4.766260147,11.76529312,-9.941149712,-10.86404228,14.89715672
1109,-0.592895389,-4.764210224,12.6267786,2.057039738,-2.213591099,10.59351254
1110,-0.909557641,-2.39991188,12.13878536,27.11233711,13.62973118,3.579418421
1111,-0.946969628,-0.231074944,11.90611839,42.43884659,22.92560959,-2.554157734
1112,-0.187410802,1.239047408,12.07646656,30.11161423,7.210261822,-0.710306585
1113,0.74082011,1.947019219,11.47410011,5.278133869,-10.06376076,6.732334137
1114,0.473287493,1.463749528,11.55437469,-15.12579346,-17.51684761,10.73777008
1115,-0.227744788,0.061178915,11.63779449,-15.4726038,-17.91164207,9.055345535
1116,-0.062802449,-1.103878975,11.34252834,-2.63909626,-13.39878178,5.700591564
1117,0.48253274,-1.302788496,11.23465919,8.945731163,-3.734730005,3.283709288
1118,0.678769946,-0.478731006,11.32300091,11.88582993,3.684267282,4.150994778
1119,0.512215972,0.076820225,11.31314945,0.776762784,2.171797037,5.407590389
1120,0.443284094,0.633901,11.63814354,-16.00126648,-2.373300552,4.896519184
1121,0.324597955,0.952451825,12.19512463,-22.52156639,-11.32853508,1.580646396
1122,0.133774847,0.526467323,12.79037762,-21.25293732,-17.88062096,-4.433237553
1123,0.167755961,-0.349988222,12.52939415,-11.50563526,-20.14246178,-9.517086029
1124,0.609855592,-0.566099346,11.65799999,5.066603184,-17.37392807,-11.04170322
1125,0.95050782,-0.547172546,11.56572914,16.22629738,-20.58101082,-10.07571793
1126,0.945958793,0.021093821,11.08051395,18.77504349,-25.87679863,-8.207941055
1127,0.792177796,0.617989659,10.39613056,14.98149109,-27.15881538,-8.491241455
1128,0.923943996,0.736014724,10.03670311,9.07701683,-31.01308632,-10.01556683
1129,1.229849219,0.382163525,9.816784859,0.449883163,-37.34931564,-14.40181923
1130,1.536366224,-0.1091763,10.09670258,-2.01858902,-41.18352509,-15.86056709
1131,2.132553577,-0.396741092,10.57187939,7.704178333,-46.7586174,-11.59394264
1132,2.636124134,-0.459679902,11.39922714,28.31064034,-61.10099411,-7.169929504
1133,2.606234074,-0.103121705,11.78325367,39.46541595,-76.83091736,-4.245083809
1134,2.157267094,0.629618764,12.52231312,36.62691879,-91.28530884,-0.352801293
1135,1.911792755,1.025419831,11.8956461,35.87047577,-113.2569199,7.128390312
1136,2.734383821,1.052905083,11.55931854,43.20877838,-133.9607849,13.18026924
1137,3.848129034,0.606768429,11.04390717,50.00696945,-165.4602356,20.22959137
1138,5.050141811,-0.310280561,9.732333183,37.46056747,-186.6341858,19.78096581
1139,5.785067081,-0.396427453,8.882547379,33.63848114,-176.7564392,15.93800926
1140,5.799094677,-0.023204099,8.912057877,32.65461349,-148.9828491,10.97456932
1141,5.284040451,0.779051542,8.896336555,28.37573624,-130.0895996,7.676497459
1142,4.825846195,0.744686604,9.144244194,17.19382477,-121.2821274,6.775500774
1143,4.521957397,0.472432792,9.550940514,0.747090638,-120.8957977,7.056375027
1144,3.784378052,0.670577168,9.68033123,-9.920899391,-105.7060089,5.89665699
1145,3.536530495,0.597003996,9.76366806,-15.56999207,-91.73171997,8.167456627
1146,3.068325281,0.291155398,9.875273705,-29.01821899,-79.28136444,8.584730148
1147,1.916654944,-0.369105965,9.634429932,-36.90099716,-70.65273285,8.062297821
1148,1.551351666,-0.19399707,9.791280746,-36.77074432,-65.60926056,8.028277397
1149,1.310286641,0.911030889,8.835547447,-10.27180004,-67.25898743,12.70438862
1150,2.020780087,1.495446086,8.907892227,27.81627274,-71.55456543,13.31340122
1151,3.350028992,1.087383986,8.773077965,22.83332062,-65.60232544,10.67483521
1152,3.60091114,1.278460622,8.210022926,-5.614898682,-46.57296371,8.657295227
1153,3.904556513,0.618162215,7.847432137,-8.89033699,-34.49435425,10.53658199
1154,4.437885284,-0.504868448,7.586916447,18.5374794,-24.53787231,6.589613914
1155,5.121603489,-1.251199961,7.611634254,38.97604752,-2.059143782,-1.086688638
1156,5.357934952,-0.7718454,6.799571514,20.20736504,37.54350281,-3.807825804
1157,5.3723979,-0.023896134,6.063531399,25.73901939,47.2734642,-3.084940434
1158,4.821706772,0.902439594,5.825739861,30.57447052,49.53467178,-6.5023489
1159,3.749016762,0.969848871,5.398255348,32.55561066,65.36817169,-9.933024406
1160,3.455960274,0.516210616,5.379779816,30.66766167,93.87729645,-8.171309471
1161,4.354576588,0.50078994,5.880287647,5.9025774,123.1244583,-4.255714417
1162,4.657536507,0.641761661,6.203398705,-5.842787266,150.4130859,-3.520707846
1163,5.313678265,0.850181103,6.96021843,-1.74920845,171.1036835,-9.110022545
1164,5.512014389,0.728451431,7.653073788,-5.734630108,183.7157135,-18.0060463
1165,6.190126419,0.717476785,8.50188446,-19.68842316,201.6267242,-24.09909248
1166,6.936800003,0.675164998,9.376704216,-36.39045334,194.5275116,-20.15763664
1167,7.000680447,1.01374507,9.728547096,-43.7153244,178.2268829,-10.15762997
1168,6.078057289,0.96813035,10.33188152,-45.54949951,171.0595398,2.445610285
1169,4.719314575,0.346472293,11.76480389,-51.59509277,160.1476135,17.34949303
1170,2.975658894,0.469556302,12.67120743,-45.63350677,135.716507,9.990197182
1171,5.193193436,1.491167426,12.67888641,-2.624315739,111.5533524,-4.884621143
1172,8.228867531,1.466685057,14.94431973,-64.24460602,78.69509888,-20.28059578
1173,8.568728447,-0.776679039,12.30282593,-83.59435272,76.65063477,-21.76800156
1174,8.285776138,-3.016783237,9.078156471,-31.88424873,54.4931488,-18.62458229
1175,8.569363594,-2.127738476,7.120711327,29.88120079,-3.446164608,-17.38580513
1176,9.246709824,1.470432878,5.41916275,157.6136475,-107.7420425,21.26964951
1177,6.835228443,-0.572470307,4.999069691,183.0431519,-190.4365387,74.82650757
1178,3.294005871,0.28040272,1.349477291,169.1528015,-172.0744324,57.31150436
1179,-0.737622559,2.817922831,0.714405,108.3668518,-8.559659004,4.391678333
1180,3.716296911,3.984335661,1.359562516,-59.45388031,173.8007202,-14.57255173
1181,-0.557657599,4.869487286,1.727500916,-188.0727234,160.5220795,2.538208485
1182,-8.244923592,2.970985889,2.016209602,-108.8783264,189.6622162,4.665044308
1183,-9.275216103,-1.830057383,16.56415558,-85.41270447,271.3760986,1.995548844
1184,-6.468780518,-4.102523804,28.54430199,-176.5606842,232.3390503,-36.12537766
1185,-1.601276994,-3.741981268,12.28153038,-112.4621353,-30.09059334,20.71492958
1186,1.14321506,-1.036684394,10.84866619,30.07075119,-36.15789413,-2.295888901
1187,0.410224408,-0.343869835,11.83862495,10.21742058,-28.9038353,7.047723293
1188,-1.43241334,-0.462421894,11.36202049,36.59058762,-44.92938614,16.62528229
1189,-0.047143549,-2.250180483,10.69420719,51.82814026,-69.60808563,26.93009758
1190,0.964151204,-3.373276711,11.04718399,29.80922318,-47.84405899,11.95390129
1191,1.497857571,-2.054450512,10.0862236,40.56069946,-29.00663567,-3.31221199
1192,-0.536087036,-0.408165276,10.3486557,60.65630341,-12.26253796,-0.174027815
1193,-1.389971018,2.023716211,10.81020546,56.5447197,2.971414089,2.415829897
1194,-0.174079627,3.088865519,10.55741596,20.04427719,0.593914568,5.283939838
1195,0.537706792,3.706566095,10.43365479,-12.89849091,-9.283792496,2.879273653
1196,1.619821429,3.211291313,10.15761089,-11.5611105,-10.42878342,2.479036093
1197,1.57543838,1.211061001,11.02360153,4.94048214,13.25860977,-1.249772668
1198,-0.593773901,-0.509583294,12.24319077,25.29205894,7.241912842,-0.816227496
1199,-1.168673873,-1.958671451,12.53620338,37.73754883,-6.338125229,1.289778948
1200,-0.832477748,-1.811022639,12.79030704,35.26878357,-2.339512825,0.472870111
1201,-0.215182707,-0.445203871,12.65088367,26.11647987,-2.509422779,-0.924979329
1202,0.002077712,0.594436169,12.25346088,22.62336159,-1.543692827,-2.593200922
1203,0.475875199,1.52996695,12.11528397,20.83283615,7.73458147,-3.042089939
1204,0.165885463,1.858187675,11.79090309,17.55379486,5.670665264,-2.700760126
1205,-0.27977547,1.725471258,11.29259586,15.33878803,4.472333431,-2.572657347
1206,-0.056129068,1.461465716,10.8813448,19.32706261,4.972238064,0.476934731
1207,0.109515212,1.47299099,10.61335754,18.34082794,4.668599129,2.955132961
1208,-0.090260081,1.677443266,10.31091785,15.01762772,3.763514042,2.372922659
1209,0.125771493,1.768720984,9.930801392,13.55840778,9.101269722,1.269245028
1210,0.14819181,1.46698761,9.557237625,5.482334137,17.14186287,-1.825035095
1211,0.311947614,0.917658806,9.582399368,1.605196118,23.38859749,-4.176620007
1212,0.456886828,0.607204974,10.33219528,-3.304701328,29.12755775,-1.778167009
1213,-0.084957078,1.439980507,11.31880283,-21.10473061,33.98502731,-3.821142197
1214,-0.78242588,2.27196002,11.46647549,-28.05378151,26.21021461,-9.544138908
1215,-0.964253783,2.313286543,11.76505756,-29.18875313,11.62086582,-10.50046539
1216,-1.237870574,2.119202137,11.92271805,-31.59770203,-7.306524277,-7.456934929
1217,-1.087056875,2.015911341,11.89927959,-23.39078522,-25.91427422,-8.957043648
1218,-0.630793691,1.138003707,11.68210602,-30.5873661,-31.83244896,-8.921120644
1219,0.048251711,-0.034961153,11.40554142,-42.27828979,-35.70409393,-2.535159588
1220,0.13867718,-0.451322913,11.19895458,-49.77771759,-44.62475967,2.282722712
1221,-0.028963938,-0.185787126,11.16511536,-50.63905716,-58.36710739,4.04276228
1222,-0.126653045,0.070073925,10.90438557,-48.16431046,-71.23434448,-0.896788061
1223,0.794388533,0.824498653,10.10252666,-34.34544373,-80.41876221,-4.134449482
1224,1.32261622,0.910895407,9.923599243,-10.54395485,-90.41361237,-1.341030478
1225,1.528594017,0.465074033,9.567768097,6.476138592,-91.61044312,-0.205496803
1226,2.177494049,0.268786818,10.44971275,20.83318329,-116.8163834,5.295105934
1227,2.656237602,-0.830980361,11.02435398,31.13625717,-132.7750549,14.21104717
1228,3.377622366,-1.200563788,9.827066422,25.79606247,-140.7638092,19.21505165
1229,4.234000206,-1.1702106,9.603837967,32.77905655,-153.6570129,17.5169735
1230,4.399618626,-0.131481707,9.422344208,48.19050217,-162.1031494,17.0069561
1231,4.625292778,0.492426068,9.076677322,59.16858292,-164.7415314,19.9489994
1232,4.580311298,0.609955847,9.17997551,55.09133148,-162.7016602,20.16033936
1233,4.295900822,0.390329987,9.678134918,44.44228363,-156.7555389,16.74132156
1234,3.906916857,0.571199417,9.327989578,36.90605927,-149.3558807,15.68848038
1235,3.431732893,1.307870626,8.889512062,27.86634827,-139.3518677,21.11143875
1236,2.618923426,1.759448171,8.915854454,13.22175121,-123.9932327,24.2191906
1237,2.849303246,1.384209752,8.155035973,7.803751469,-121.9429321,23.97026825
1238,3.242630959,0.963171303,7.537097454,3.409116983,-105.5831146,17.91408539
1239,2.787397146,0.712044001,8.293047905,7.129155159,-91.23859406,10.46447659
1240,2.625738859,0.956082642,8.595712662,0.13474527,-82.36624146,8.377046585
1241,2.454500437,0.445069999,8.882987976,2.185547113,-78.58011627,-0.52271533
1242,2.77154398,0.806925833,9.187366486,2.498416662,-71.12742615,-8.401451111
1243,3.206836224,1.133272171,8.876420975,-2.955063581,-58.82460022,-7.228186131
1244,3.625287771,1.517235041,8.48026371,-9.191531181,-44.21760178,-6.832839966
1245,3.672054529,1.447454095,8.249335289,-21.61055946,-25.35643387,-6.726191521
1246,4.237779617,1.412324786,7.668401241,-26.02509499,-9.412975311,-6.842438698
1247,5.745209694,0.713876486,7.90249157,-39.65517426,25.5293808,-10.13820457
1248,6.14693737,0.785139501,8.256086349,-24.90877342,48.97835159,-3.545591354
1249,5.901414394,1.506197572,7.756037712,23.99975777,68.72731018,3.288469315
1250,5.515758991,0.822219014,7.655533314,53.34833908,71.27622986,5.138454914
1251,4.980998993,0.13311711,7.312640667,15.74790668,63.67044449,2.334742069
1252,4.848861694,-0.458591223,5.881177902,-10.62355614,77.42053986,1.495935202
1253,5.081896782,-0.766325831,6.542275429,-29.11311531,109.4261169,-1.55034256
1254,5.113148689,-0.37678501,4.324073792,-19.00695229,138.7445374,-8.026166916
1255,5.64704752,-0.241867885,6.730667591,-5.200726032,168.9623871,-15.75584507
1256,5.535462856,0.533487797,8.23874855,-14.87006855,178.4122772,-14.85897636
1257,5.73003912,0.750962138,9.058751106,-35.56545639,175.4118195,-8.697737694
1258,5.967193604,0.398277909,9.277292252,-46.77355194,174.014267,-8.23200798
1259,5.535260677,0.098112673,9.389836311,-42.55439377,181.1910248,-8.102262497
1260,5.642934322,-1.052834749,11.39629269,-48.33605576,167.3533325,0.645745993
1261,4.606770515,-1.930014372,12.04174995,-48.29106522,139.9373016,-0.799664736
1262,3.982491493,0.637479782,10.85057831,-15.48484802,120.2998199,-16.99555397
1263,8.133944511,2.603915215,14.24438953,-16.81768036,83.36009216,-17.0308342
1264,9.075478554,4.129841805,13.30863953,-38.91772461,58.05535126,-10.07275581
1265,9.435276985,2.337883949,10.49407291,-23.82183456,62.56571579,-10.85602951
1266,8.265036583,-2.116317511,6.872552395,-15.69805622,31.94451523,-5.994858742
1267,5.870381832,-3.635241032,8.100272179,66.10315704,-4.897159576,-3.881267309
1268,6.860752106,-1.72076118,9.13185215,214.4680786,-106.9447021,63.10842896
1269,6.044959068,-1.3190552,7.778163433,212.4238892,-253.0020447,92.57241821
1270,1.284105778,0.552257121,-0.475248992,120.0162048,-256.8986816,75.75141907
1271,-1.772806406,0.945287108,-1.99750793,78.15962982,-9.514089584,-13.75514698
1272,5.458274364,0.623550117,2.187003851,-42.39280701,146.3627014,-34.31128693
1273,-0.647447765,1.279687643,3.260501862,-121.2202835,199.5671387,-50.2736702
1274,-3.872709513,2.439989805,6.591024399,-75.37528229,272.6581421,-67.47470093
1275,-6.997542858,1.369863272,18.61306572,-102.4209595,405.7249451,-88.54440308
1276,-3.449290037,1.574011326,26.2160759,-135.3593903,231.9156647,-58.47894669
1277,-3.830063343,0.369408756,11.82395363,-94.15066528,-31.55521202,19.21708679
1278,-1.385590792,-0.93940419,11.05191422,-2.466507435,-44.5532608,4.088628769
1279,1.064001322,0.036655076,11.22240162,67.83945465,1.048517585,-0.554780066
1280,2.072725296,0.505218983,13.34021378,70.13684082,-15.25253868,6.410405636
1281,1.950709224,0.703716457,11.3786211,-12.44577789,-27.9525528,6.840143681
1282,0.670806944,-1.214814544,11.11404037,-81.49906158,-11.61700916,0.996799827
1283,-1.19743216,-2.288158655,9.991270065,-56.16846848,0.451281607,3.602523565
1284,-2.451617956,-1.678192019,8.982500076,9.172703743,13.28742695,2.316946507
1285,-2.061029434,-0.336920261,10.68562889,29.43069458,3.048952103,-6.685050964
1286,-0.493509978,1.185379505,11.15477657,16.6157589,-1.274675131,-8.958378792
1287,0.643721879,1.627338171,10.8518486,3.674562931,12.71033955,-16.00978851
1288,0.953495145,1.603858352,10.50795746,-6.107766151,11.41934013,-15.30760288
1289,0.372406572,1.088451147,11.31291771,10.67942715,14.8098774,-7.198151112
1290,-0.478123516,0.37972337,11.79793835,35.57812119,13.47161388,-4.888259888
1291,-0.873623788,0.054415844,11.87876034,47.70413208,7.75778532,-1.710174084
1292,-1.378893733,0.022786655,11.28782272,39.77254486,15.31945705,-0.394745439
1293,-1.847220063,0.171328753,11.06356716,33.96474075,15.21680832,1.4803828
1294,-1.496923566,0.282654703,11.16165447,25.19444466,4.71467495,3.451095104
1295,-0.575413704,0.550231397,11.13200665,26.83961868,-7.076284409,5.867496014
1296,0.267255664,1.174345255,11.16766453,28.98811913,-15.70077133,1.763076067
1297,0.158913463,1.480483294,11.47403622,27.34672928,-10.21000862,-3.453050852
1298,-0.692596734,1.11718297,11.71026802,20.69652367,-0.725468099,-6.978831291
1299,-0.813294053,0.805874765,11.36723995,15.23153687,3.593689442,-9.321982384
1300,-0.497549266,1.077921748,11.09575462,14.49097061,8.635415077,-9.659417152
1301,0.078672208,1.658117652,11.13399124,14.42093182,7.320559502,-7.025339603
1302,-0.050778374,1.77733314,10.95384884,6.464727879,12.58862686,-3.939038038
1303,-0.622975409,1.747383833,10.63028717,-5.585939884,21.05704117,-1.728136539
1304,-0.609945297,1.476160049,10.37216759,-15.24450302,23.27738953,1.062641859
1305,-0.509441316,1.249150038,10.606143,-22.97879791,19.13700294,2.763689041
1306,-0.631657541,1.332601547,10.66684628,-27.62969589,11.14216614,1.728318214
1307,-0.502804935,1.308915854,10.12649536,-21.34825325,6.729991436,-0.929940939
1308,-0.340304822,1.247134089,10.18401146,-17.61924744,5.67547369,-2.955318451
1309,-0.342033446,1.230650425,10.54044151,-14.56813812,-3.00975728,-2.381758928
1310,-0.877144694,1.131404638,10.41231346,-11.87691498,-0.361094415,-0.828936219
1311,-1.169973373,1.043789387,10.31107712,-14.42094612,-1.046164274,-0.436453551
1312,-0.715629637,0.753307402,10.5993824,-20.8800621,-11.13876629,1.266364694
1313,-0.094695985,0.350449175,11.55651855,-36.51622772,-10.87575912,2.31264019
1314,-0.648075581,-0.224210769,12.44963074,-55.41458511,-17.74579048,-0.370620221
1315,-1.205257654,-0.672552466,12.00953674,-44.58833694,-45.36633682,-5.859707355
1316,-0.997280478,-0.062644303,11.47061062,-34.0532074,-71.88088226,-8.932714462
1317,-0.462529093,1.001884818,11.18439484,-16.0162487,-97.56842804,-0.61658293
1318,-0.086364716,0.934096932,11.96408463,35.32640457,-118.2656174,11.11763382
1319,0.582344651,1.315331936,10.04623413,60.0772171,-170.3359985,17.5320015
1320,1.602143049,0.465936035,9.204189301,55.00269318,-183.763504,12.83201408
1321,2.488711119,-0.906273723,9.051765442,44.5077095,-169.4730377,8.099248886
1322,3.328346014,-1.54595542,9.339232445,31.32134819,-144.756073,8.95392704
1323,4.063871384,-0.026638806,8.914196014,27.41001511,-134.208725,15.6409235
1324,4.755491734,0.935098886,9.3608675,27.74066925,-141.7551422,18.14428139
1325,5.053622246,0.755746365,9.712926865,26.81536865,-154.3087769,15.091465
1326,4.646520615,0.922243834,9.571017265,26.60717583,-159.8721161,13.4727335
1327,3.914641619,1.076850891,9.428341866,30.59558678,-156.6549835,15.78471279
1328,4.052431107,0.579975128,9.111344337,32.13772583,-139.5809174,19.19635582
1329,3.827821255,0.991188645,8.912945747,28.79383087,-128.2387543,23.05978584
1330,3.466514587,1.351414442,9.527155876,20.6181736,-121.3232422,26.82493782
1331,2.976508379,1.206617355,10.25590611,12.23440075,-118.2320404,27.34809303
1332,2.246032238,1.014647961,9.918032646,3.898704529,-115.0250168,22.98328209
1333,2.004091978,1.68384099,9.355319977,11.46172333,-113.2641144,23.55044556
1334,1.707499266,1.77349472,8.994390488,15.4000721,-111.1060791,23.69809914
1335,2.030039072,1.937226534,8.674168587,11.13322639,-110.2228165,25.17515945
1336,3.343552351,1.793899894,8.907213211,0.231604651,-97.7288208,23.27565575
1337,4.621984005,1.101763129,8.584388733,-11.59822845,-79.13318634,17.59835625
1338,4.793487549,0.337228,7.837781906,-21.27800941,-56.06822968,5.765716553
1339,4.591159344,0.394490808,7.294350147,-21.81757355,-22.77038574,-5.752773762
1340,5.197651863,0.51022768,7.312481403,-29.81765556,19.55595589,-7.028527737
1341,5.629019737,1.194205642,7.410051346,-29.10085869,43.50201035,-5.450345516
1342,6.518231869,1.370839357,7.743420601,-27.30174255,53.31695175,-7.465595722
1343,6.654662132,1.63277185,8.010692596,-12.09787083,52.02290726,-9.018963814
1344,5.825563431,1.492383361,9.029714584,2.960702658,67.0741272,-8.524849892
1345,4.637615681,1.212429881,8.913583755,7.743193626,76.19629669,-4.869753838
1346,4.254946232,1.299820304,7.506233692,-6.014264107,74.67962646,-8.029614449
1347,4.165196419,0.244126141,6.612421513,-48.18014145,81.03851318,-10.178298
1348,4.659585953,-0.406451643,4.642967701,-55.87405014,108.4732056,-4.357524872
1349,6.285882473,-0.107770726,4.745701313,-41.74113464,166.6288147,0.152174473
1350,7.516854286,0.166944414,8.375688553,-61.39180374,194.2955017,-6.729032993
1351,6.63330698,0.142333433,9.413509369,-93.32093811,182.7689514,-16.3754673
1352,6.091948509,0.301029712,9.02073288,-99.65871429,163.2372437,-13.09068108
1353,6.554118633,-0.574279547,8.602488518,-75.47683716,145.5339813,9.450082779
1354,6.002682686,-1.069006443,8.544629097,-50.48036957,126.7740936,31.05285835
1355,6.228283405,-1.451107502,8.933887482,-26.99603081,115.4094467,43.3875351
1356,7.413548946,-1.864360571,10.21668053,-11.88186932,113.2836075,40.27108383
1357,6.651700974,-1.636015773,9.876948357,17.66278267,107.0707092,24.2815094
1358,9.456411362,-1.792159796,12.21125889,62.56512833,100.5084839,15.13360786
1359,8.585211754,-1.165085793,12.35763836,32.3352623,86.86052704,1.577284217
1360,6.888195992,-0.409788936,10.44860744,-1.684072971,100.8163834,-23.236269
1361,6.010177135,0.117359117,7.41479063,-22.37977791,54.88030243,-27.2510891
1362,4.211922646,-0.243117809,6.982634068,55.89571762,-101.2705231,2.828614473
1363,4.339922428,-2.259199858,4.893691063,120.3054123,-165.7377777,15.64104462
1364,0.050013103,-3.259611845,-0.614389598,119.1206284,-2.944173098,-24.24481583
1365,6.103209019,-1.112284303,1.676718831,74.71315002,87.67784882,-28.97948265
1366,1.348660588,1.356766939,1.641688466,5.111052513,94.12232208,-3.015259504
1367,-5.133294106,2.08882165,0.782962799,6.504993439,184.5865936,-6.978482246
1368,-6.502787113,4.7016325,11.06933308,36.02438354,313.4551697,-39.60884857
1369,-7.164144516,2.126822948,27.39746857,-56.2977066,366.0050049,-39.59861755
1370,-7.148808479,-4.255589485,18.09174538,-145.5802765,44.67215729,13.69242859
1371,-5.093445301,-1.981905937,6.047850132,10.77051067,19.45887947,-2.170475245
1372,-1.123081923,1.638328314,11.31138992,106.964859,-50.55862045,7.020641327
1373,0.952939689,2.815696955,11.45350552,31.79075813,-75.08364868,18.08135223
1374,1.996367931,2.657533884,10.70648766,-28.38736153,-60.00755692,10.02412987
1375,1.765246391,0.120332703,10.42032909,-58.70113373,-56.35356522,12.97675991
1376,0.225840837,-1.793426394,10.44755173,-72.972229,-51.03320694,5.338572979
1377,-1.811136246,-1.753181338,9.514908791,-17.43959618,-17.2644558,0.086628735
1378,-2.982759476,-0.54916513,10.08408165,41.21557236,-9.564847946,-13.25049019
1379,-1.755653739,1.061817288,9.958293915,54.50632477,-8.622373581,-17.77519608
1380,-0.763692021,1.410557866,10.24225426,40.44943237,-11.75386906,-2.578382492
1381,0.84136951,1.851786375,9.982740402,23.95055199,-11.86375523,2.085781813
1382,1.809781909,1.534241676,10.97005177,20.74370575,-8.576119423,-0.997667611
1383,1.017815471,0.367871881,11.583951,19.44508553,1.663137317,0.7632339
1384,-0.891524732,-0.466067553,11.04983044,23.88249016,-3.33574152,8.725478172
1385,-1.017886758,-0.131076187,10.51168823,20.96889114,-12.91858768,11.91832542
1386,-0.799163461,0.76853323,11.08465195,14.77037621,-21.54376793,7.191367149
1387,-0.340926439,1.78971386,11.62399673,9.939117432,-16.40522575,0.73388803
1388,0.349694729,2.176527023,12.00102806,8.753430367,-5.183934689,-0.237314522
1389,0.957424521,1.796128392,11.49664593,6.922371864,3.01996851,3.393516779
1390,0.874733686,1.89826262,10.91190052,12.9067297,5.91619873,2.523909569
1391,0.059490114,2.146042109,10.94974709,20.20107651,4.509665966,0.652593315
1392,-0.505237997,1.51756382,11.48173904,18.45820427,-5.378929615,-1.932275653
1393,-0.462012947,0.888851523,11.36596298,10.90611649,-6.214642525,-2.448113918
1394,0.108548753,1.048085093,11.12175751,15.48016071,8.060127258,-1.642288327
1395,0.241200566,1.52554369,11.02088165,19.42642021,19.70983696,-0.02981326
1396,-0.052363172,1.643195271,10.86135864,14.82592487,21.39612198,0.056572177
1397,-0.14862442,1.340089321,10.96877384,0.481244147,20.51099586,-2.588294983
1398,-0.310673088,1.076886535,11.47835445,-13.32220173,17.66801262,-4.674479961
1399,-0.469664365,1.109309554,12.00129128,-19.23085213,16.66458893,-2.976714611
1400,-0.552789688,1.164453983,12.004632,-20.76078606,12.60007095,0.080456056
1401,-0.459672779,1.287493944,11.6234293,-20.75131416,4.643801212,0.907606661
1402,-0.257759243,1.198466659,11.31182003,-22.80426788,-4.139788151,-0.366941005
1403,-0.127959549,1.190413117,11.22899628,-28.06650162,-13.30553055,-2.374977827
1404,0.011970926,1.0347085,11.68466377,-31.65291977,-25.19501305,-1.551792741
1405,-0.037517142,0.566056013,11.98091507,-26.55085373,-31.29129601,1.931804419
1406,-0.158345759,0.342040896,11.69003582,-18.76444817,-26.16585159,4.392140388
1407,0.013518335,0.635904729,11.12613583,-14.96270084,-24.84867096,4.351962566
1408,0.267621011,0.392738432,11.00979614,-18.53487587,-29.57509804,3.772324562
1409,0.522420883,-0.092415199,10.88001633,-20.91098404,-33.04362869,2.135476589
1410,0.533270299,-0.143051058,10.51760674,-16.86301994,-38.51654434,0.287779689
1411,0.528036892,0.307266474,10.42880058,-14.16499329,-41.34095764,-3.010998249
1412,0.607749283,0.772905052,10.34909344,-15.79098606,-50.34032822,-4.946154594
1413,1.270071149,1.150349855,10.01965714,-20.3807869,-55.09395981,-4.808702469
1414,2.067013979,1.444787264,9.774181366,-27.41664314,-55.87249374,-4.552565575
1415,2.659459591,0.954405606,10.51236153,-29.21347427,-69.8241806,-4.853090286
1416,2.518983841,0.025011592,11.28670502,-8.048624992,-80.58631897,-2.710494518
1417,2.060214043,-1.575671554,11.62803745,-9.696809769,-85.18178558,0.598757148
1418,2.234464884,-2.13761735,11.95537758,-19.94986725,-99.56378937,0.314183176
1419,2.985327482,-1.243380189,10.46034241,1.163368821,-143.6768341,6.433476925
1420,4.058238983,-0.468668163,8.98546505,60.03811646,-182.7657471,15.38114357
1421,5.231862068,-0.576102138,9.095146179,79.57209015,-183.4372711,17.65194321
1422,5.60317564,-0.00043796,9.237413406,66.36517334,-167.3301544,14.12588692
1423,5.192050934,0.887873292,8.990363121,56.26773071,-161.0417633,18.45602608
1424,4.76060009,1.127520442,8.52371788,47.90646744,-156.9498749,25.5248909
1425,4.395102024,0.975768328,8.701207161,43.7673912,-145.9905396,29.28396225
1426,3.811334372,1.110518336,9.170311928,32.3313446,-133.7010345,28.1792717
1427,3.125753403,1.20393157,9.548883438,13.07450676,-121.8231049,29.30970192
1428,3.507568836,0.161710352,9.458109856,0.9168275,-108.3544159,26.61534309
1429,3.99234271,-0.861072361,8.993577003,6.809230328,-100.7039719,19.54761696
1430,3.303383112,-0.504770994,8.694731712,21.83567429,-92.37010193,15.77811146
1431,2.510401249,1.242304921,7.91119194,34.89709091,-77.26825714,16.63949203
1432,2.167841434,2.696454763,8.176264763,38.4908905,-64.20729828,14.41228485
1433,2.76132369,3.498551846,8.792324066,25.66926193,-56.65624237,12.92488194
1434,3.556099892,3.073631525,8.29238987,16.52900696,-43.00936127,10.14565945
1435,3.917862415,1.861513376,8.072079659,15.64547539,-37.43457794,-4.282699108
1436,3.690689564,1.196955919,8.281612396,-0.908790588,-6.517656803,-16.11502647
1437,3.641735077,1.037783504,7.679493904,-24.77325058,15.13996124,-15.3763752
1438,4.351144791,1.0032897,7.656109333,-34.73803329,12.96987724,-16.03623962
1439,4.908740044,1.231889129,7.853161812,-15.51008129,12.8541193,-18.60874939
1440,5.810339928,1.191723108,7.592355251,2.603089094,31.74144363,-18.89639854
1441,5.711928368,1.266391039,7.294037819,0.816674948,48.56467438,-17.80388641
1442,5.004991531,1.104314685,6.950763702,-8.89985466,56.22584152,-14.14377213
1443,4.518805027,0.532430112,8.0532341,-31.43291664,66.82938385,-11.24251842
1444,4.252476215,0.224836275,8.006904602,-34.08554077,81.87524414,-13.65587425
1445,4.374555588,-0.14596352,7.532515526,-28.18614388,100.615303,-14.91783333
1446,4.699098587,0.173681736,5.570790291,-28.27837944,116.6531448,-15.07423306
1447,5.051698685,0.17773506,7.357679367,-22.50189209,136.0104065,-15.18947315
1448,4.670777321,0.410676658,8.526715279,-29.14626122,145.2337036,-14.51750278
1449,4.491203785,0.416990757,8.900759697,-31.8909626,147.0531158,-11.80563736
1450,5.164461613,0.16641739,9.11495018,-29.16729546,146.5495453,-5.342525005
1451,5.718013287,-0.079368338,9.536015511,-31.65184784,153.452774,1.628679395
1452,5.62379837,0.260304779,10.21560192,-32.49018097,158.4812775,-0.105508432
1453,4.867970467,1.453560233,10.2663641,-25.08003807,145.12323,-2.036185741
1454,4.483289242,1.716878295,10.16739655,2.34348917,140.8226624,2.833609581
1455,5.254435539,0.616779447,11.37968636,-30.6247406,120.3027725,9.655202866
1456,5.117705822,-0.272877187,11.10748577,-41.99540329,104.0165863,13.36057472
1457,6.08332634,-1.095008731,10.29943752,-18.64566422,77.07430267,16.72011375
1458,7.07643795,-0.651817977,10.65011501,-6.541893482,59.49713135,5.084608078
1459,7.869019985,0.992289066,11.74872684,-18.25784111,69.0836792,-14.90065861
1460,7.611697674,0.587455034,12.20810032,-46.48692322,86.44393921,-30.60700607
1461,6.214342117,-0.895805418,10.19081306,-11.56672382,68.13705444,-0.478875995
1462,6.240011692,-1.940067291,10.3514843,36.53971863,56.61519241,34.34210587
1463,6.036872387,-1.399533749,10.23293209,45.18320465,22.12810516,36.71504211
1464,2.131478071,-1.978651643,1.463021755,110.6208344,-39.01328278,26.69291496
1465,0.598561764,-1.838329911,-1.029350042,170.6410217,-17.15940666,4.590444088
1466,-1.751823545,0.331600547,4.744565487,156.6279144,47.53897858,-4.436986923
1467,-4.37271452,1.671598434,4.603300571,34.12181091,168.8711853,-29.11975098
1468,-6.816567898,4.3929286,6.598001957,-38.68576813,269.6966553,-49.39450455
1469,-7.864902496,4.400031567,12.50163174,-28.90452385,180.1178894,-23.98787498
1470,-6.629292011,4.266960144,14.51627922,-62.72987747,1.736674666,10.02904606
1471,-0.83719039,0.12056458,15.0765543,-119.0991058,-49.06821442,-12.52546406
1472,0.819242835,-0.361046284,11.86228275,-118.4199524,-66.74617767,-6.834425926
1473,0.676656604,-0.527715027,10.06013012,-36.23377228,-26.70333099,-1.419536352
1474,-0.776458859,-0.546996355,9.428919792,32.19839478,-22.39621353,10.41602707
1475,-0.896308303,0.367673218,10.03912449,68.22740173,-41.46176147,6.93495512
1476,0.199791729,0.317228556,10.03691006,50.81796265,-42.98986435,2.363295078
1477,-0.608521998,0.660250664,10.44214344,9.262434959,-36.01203918,-3.043059587
1478,-0.499144495,0.175995737,10.17638874,-5.820439816,-29.46157455,0.561784267
1479,-0.669379711,-0.422896028,10.91282558,14.65070343,-10.77144527,-0.737633765
1480,-0.952580631,0.68686223,11.13135529,43.2861557,-5.660047054,-1.008032918
1481,-0.496080756,1.323031425,11.20343494,38.62863922,-11.11125088,2.802103281
1482,-0.823683441,1.478177786,10.27526474,22.00757408,-8.99795723,-3.119088411
1483,-0.156030715,1.862586617,9.368193626,16.21906662,0.225853011,-7.398768425
1484,0.15733701,1.51914525,10.40914631,10.43352699,-9.417808533,-0.536253512
1485,0.487463593,0.800638318,11.3783102,2.120434046,-20.8116188,5.961307526
1486,0.437149346,0.268493444,11.88502312,-2.040853262,-13.61872482,5.012037754
1487,-0.757608771,0.522657633,12.19542217,3.17025733,-5.432864666,0.426752508
1488,-1.366635084,0.833057463,11.88538265,15.15415764,1.645021915,-3.9684484
1489,-0.925217867,1.242079616,11.22988129,26.8710804,-2.739733934,-6.71849823
1490,0.049849182,2.189175844,10.83254719,23.64124107,-11.33121586,-6.837237358
1491,0.452541202,2.935774565,11.11432838,13.14577579,-10.41733646,-6.196754932
1492,-0.029252227,2.819898129,11.12696362,1.643458247,-5.527630806,-2.701141357
1493,-0.464269251,2.396687508,11.1136694,-7.530558586,4.197877884,-1.007936835
1494,-0.597744644,2.046128035,11.00445175,-13.32427406,4.599102974,-0.25187546
1495,-0.456957549,1.706616044,10.89139843,-16.96067047,0.591890872,0.490413308
1496,-0.210203245,1.574776888,10.84719372,-16.05750465,1.076182604,0.5896945
1497,-0.090873867,1.626553416,10.65701962,-5.416855812,1.887790203,0.423781365
1498,0.087799884,1.711469531,10.33059788,-3.189613819,2.266205549,0.99349755
1499,-0.188328698,1.598119617,10.20726395,-7.037231445,-0.298144668,-2.658496141
1500,-0.251757175,0.870422363,10.43807125,-8.901478767,-0.214211881,-4.012012959
1501,-0.027282819,-0.069266386,10.98313522,-8.414586067,11.45482254,0.744965196
1502,-0.114234693,0.204106063,11.48504734,-12.68767929,16.03379822,3.634364128
1503,-0.76580596,0.872570693,12.3028698,-25.50398445,4.852792263,-0.096175931
1504,-1.181252241,1.571356297,12.49692726,-34.52749634,-17.48127174,-1.867815971
1505,-0.735009015,2.321357965,11.64101601,-30.91525078,-36.59988403,4.447609901
1506,-0.216280699,2.038998365,10.81257534,-30.06189728,-46.08377457,12.43124199
1507,0.285903454,0.978894532,10.80416298,-36.91753769,-55.00063324,14.46836567
1508,0.449304223,0.253951967,10.73847675,-44.04033661,-62.0625267,10.08378124
1509,0.727189064,-0.250935346,10.6792345,-39.74943542,-64.52646637,6.55229044
1510,1.372305393,-0.523114562,10.63860607,-26.14766121,-64.78967285,3.537449837
1511,1.792639732,-0.291351318,10.69801235,-10.84330654,-66.04441071,1.447927833
1512,1.992481709,0.113846868,10.96325207,-8.008432388,-65.46559906,1.997507453
1513,1.977569222,0.512822688,11.41146755,-5.57241106,-70.99865723,1.543032527
1514,1.94819057,0.70190537,11.30400658,10.38543797,-84.11338806,5.192485332
1515,2.237158537,0.438546151,10.76751328,17.03623581,-96.91303253,10.30972385
1516,3.175368786,0.219743311,9.937772751,11.93956757,-106.8386765,9.32197094
1517,3.882883072,0.717247665,10.02649021,7.951423645,-105.3194427,8.145909309
1518,4.082425594,1.134185076,10.62305355,-0.813330531,-114.2226105,10.14069843
1519,4.417638302,0.262492031,9.214788437,9.309786797,-114.6841812,14.87939358
1520,4.702897549,-1.000878692,9.42442894,13.10636997,-115.3117905,15.05142879
1521,4.390212059,-0.500090778,10.43604755,10.01100063,-121.2189178,12.37942982
1522,4.069928169,0.225303039,9.194392204,23.53112602,-118.2117081,12.98903275
1523,3.988485575,0.642075598,8.974102974,29.71749496,-120.8886795,15.90545177
1524,3.541943789,0.584511578,9.549665451,26.58757973,-129.4404297,13.88711548
1525,3.378947496,0.46166724,9.539366722,18.32868385,-131.6390839,13.09852409
1526,3.462580681,0.222773343,9.609596252,6.972857952,-130.1632233,12.12322998
1527,3.81125021,-0.201533303,9.481683731,4.252859116,-121.3975449,10.80350971
1528,4.110443115,-0.439881355,9.173305511,-1.01328516,-114.2158966,7.122740746
1529,3.249604225,-0.06719248,8.678717613,0.586813867,-99.52719879,7.034114838
1530,2.318100691,1.02629602,8.882978439,-1.6415236,-73.49150848,6.533764362
1531,2.2373631,2.167910814,9.171215057,-13.41557026,-51.86952591,6.436518669
1532,2.967603207,1.692659736,8.957842827,-19.29520226,-38.69297028,8.345090866
1533,3.447986364,1.225548506,8.807031631,-28.87415123,-30.18356514,6.442665577
1534,3.686078072,1.260695457,8.560573578,-38.19631958,-18.00716591,8.680425644
1535,3.805377245,-0.359049588,8.479044914,-31.22797012,-13.06836414,13.41315842
1536,4.471159935,-1.148822188,8.312915802,14.49075222,-24.944767,2.064613342
1537,4.882016182,-0.779313803,9.080485344,60.24292374,-15.10609055,-7.303342819
1538,4.175526619,0.350027174,8.759027481,46.20888138,49.02441788,-4.388781548
1539,3.675566912,2.138982296,7.661292553,20.43322754,83.8132782,1.819439292
1540,4.630702496,2.175080538,7.787544727,5.239665031,65.75231171,-3.635817289
1541,5.631676674,2.73934269,7.527035236,5.421638012,51.00358963,-7.936169147
1542,5.306244373,2.151945829,7.863675594,29.1657753,61.11606979,-4.84228754
1543,4.806298733,0.29311052,7.071326733,-4.218164444,69.81047058,2.246432781
1544,4.335530281,-0.741754353,6.802182198,-36.14624786,81.00870514,6.083358765
1545,4.498560429,-0.632388473,6.267938614,-32.93884659,99.99695587,3.566368103
1546,4.932851791,-0.847020686,6.932615757,-26.87515259,118.9607239,-2.693534136
1547,4.992524147,-0.515304923,7.808906078,-24.30910301,134.3699646,-4.791529655
1548,4.480760574,-0.380770802,8.611783028,-21.43379211,145.7307892,0.86072284
1549,4.393675804,-0.465064615,9.105923653,-19.21347618,145.0215759,7.515135765
1550,4.783124924,-0.029456437,10.21351147,-22.82352638,145.0377197,10.44648266
1551,5.353624344,0.485765457,10.36961365,-31.52187347,139.7543945,16.744524
1552,5.689016819,0.098755948,10.85089111,-50.70145798,131.904541,27.27370644
1553,5.671525478,-0.395080656,11.53038788,-65.6736145,118.8439026,32.04944229
1554,5.578053951,-1.516408205,12.24787712,-62.8816452,107.8801498,26.54720879
1555,5.780526638,-2.7384305,12.23917198,-47.53305435,98.39768219,13.44671154
1556,6.385038376,-2.913644791,11.32312298,-6.528609276,83.79261017,6.061774731
1557,7.408679008,-1.290547013,11.31379223,21.28572845,73.62989044,2.959192514
1558,7.611533642,0.676468849,10.66280556,25.94885635,74.58880615,-6.363641739
1559,7.625881672,-0.052354369,9.258457184,21.68527985,52.17534256,-1.743873
1560,6.47741127,-1.701986909,6.425458908,37.15545654,28.40835953,3.510971069
1561,5.897362232,-2.651301384,6.096540928,55.53315735,-8.37253952,1.576716065
1562,4.872601032,-3.677835703,6.334889889,62.74271774,-21.45203018,-14.97279263
1563,0.832959592,-0.981026649,3.227720499,110.941246,-29.27598763,-18.754673
1564,-0.720443904,1.203560114,2.198809385,175.8656921,-83.59991455,7.306334496
1565,-1.207973123,1.263414383,3.082878113,96.43022919,1.972057223,-7.827960491
1566,-3.306185961,1.069316983,3.995666742,30.4347229,188.9124603,-27.63687706
1567,-5.265632153,0.794490218,7.808319569,12.52904606,327.7878418,-55.81243896
1568,-6.905005932,3.461654663,15.82184315,-39.64332199,324.4655151,-79.44037628
1569,-5.270987988,2.62968421,16.51358223,-73.85643768,69.21793365,-18.35488701
1570,-2.172632217,0.844907582,13.38370037,-74.55013275,-48.79530334,-0.646546662
1571,-0.857296348,1.250358701,9.141021729,-25.22311974,-40.68616867,-5.843316078
1572,-0.269492805,0.904996216,10.53577042,-11.27066708,-47.00911713,-1.225974798
1573,-0.742631257,0.932987809,10.24532318,-14.62895203,-32.22177505,3.307747841
1574,0.575646937,0.684859931,10.09920788,-15.5308876,-43.05145645,1.484657288
1575,0.798572659,-0.738806605,10.52985668,-49.27162933,-65.53105927,-0.710871756
1576,0.132965133,-1.335867286,10.38201332,-73.58011627,-39.88072968,-4.111567497
1577,-1.324346781,-2.582118511,10.67719841,-52.47648621,-9.438405991,-3.865231752
1578,-2.403458118,-2.483682632,10.72480965,-17.73893356,-6.35711956,-6.829072952
1579,-1.462708592,-1.525455236,10.58460331,15.47492599,-18.92413712,-5.577600002
1580,-0.157348081,-0.309596539,11.00972843,27.92644119,-10.55747318,-7.968648434
1581,0.502597094,1.195438743,11.02285194,32.24351501,-4.052126408,-13.21499348
1582,0.442400753,1.336500406,11.43510437,32.70417786,-13.16106987,-7.735275745
1583,-0.004115142,0.558189154,11.76014519,17.6922493,-19.11096001,-0.227479726
1584,-0.48916021,-0.217203006,11.51325893,-0.792892814,-12.81898499,1.346876621
1585,-0.332213253,-0.618441463,11.6427002,-12.02022648,-4.919997692,0.156820267
1586,-0.568211198,-0.660129726,11.58581638,-16.86782837,-6.786387444,-2.042167187
1587,-0.652766526,-0.497018993,11.38951397,-17.9255867,-8.971309662,-5.489872456
1588,-0.532005131,-0.186513275,11.85028744,-11.76101685,-11.08281898,-4.100917816
1589,-0.34076798,0.281122178,12.74458122,23.71129608,-23.71312141,2.806318045
1590,0.050002102,0.368597806,10.97778797,80.84642029,-30.77087021,0.461854041
1591,0.761295497,-0.204675168,9.254301071,36.46006775,-10.73524857,-8.75641346
1592,0.181656361,-0.281338364,10.55957317,18.6921978,-2.728717327,-10.31197166
1593,0.137534305,-0.371406049,11.078578,13.67229366,-1.316941977,-9.409601212
1594,-0.096351795,-0.197031125,10.02242088,24.60318184,10.22540379,-5.332475662
1595,-0.098928317,-0.094300449,9.886333466,40.58917999,12.49443436,-3.9164114
1596,0.083598405,0.330352902,9.875574112,50.65782928,11.39355373,-4.865550518
1597,-0.231029227,1.607979059,10.02979755,51.50020599,6.844745636,-1.007741213
1598,-0.646099329,3.216068506,10.65666008,39.27649689,8.974056244,4.649211407
1599,-0.657440484,3.840319395,11.82539463,-1.013341904,13.54295349,9.734622002
1600,-0.83736515,3.048915148,11.65147495,-27.80326843,10.59349346,9.670524597
1601,-0.926541865,1.682538271,11.13445091,-19.2905426,-0.436332077,1.134695292
1602,-0.525977612,0.290249765,10.99649239,5.900599957,-11.26743126,-5.566091537
1603,0.113038905,-0.730458736,11.41644192,28.6557579,-9.708359718,-5.372205257
1604,0.017999487,-0.611256421,11.5412569,29.53906631,-7.048241138,1.9749825
1605,-0.249709561,0.46241802,11.32319927,19.24037743,-20.18457222,9.396463394
1606,-0.336362451,1.882492065,11.11026192,1.281991601,-33.22434616,8.84539032
1607,0.311114013,2.696992397,10.81534004,-3.938757181,-39.8563118,7.940310001
1608,0.580444813,2.28129673,11.06018734,-2.203305244,-37.27857971,8.122410774
1609,0.656783998,1.51369524,11.07813072,-4.451403618,-34.36818695,5.985784054
1610,0.846846879,0.886913657,10.81180096,-6.914457798,-33.56424713,2.811434031
1611,0.863089263,0.692013681,11.00331879,-14.25066185,-36.41652298,-0.039738316
1612,1.011998773,0.671047926,11.26958752,-16.68086624,-44.27977753,-1.455722213
1613,1.29110086,0.623630404,11.16700077,-12.2423954,-52.70696259,-1.091112375
1614,1.601224422,0.303052515,11.28295517,-8.87579155,-61.37342453,-0.288992018
1615,1.72334516,-0.040316585,11.49255276,-3.857361317,-74.60482788,-0.391702741
1616,1.691387653,0.218065187,11.99305153,10.93601704,-90.86491394,1.250391483
1617,1.916163087,0.800623477,11.87437725,30.69742584,-98.7800827,7.236213207
1618,2.558541536,0.736698508,11.03396511,34.93335724,-122.3046188,15.05626583
1619,3.472962856,0.197326228,10.15873146,21.83795929,-139.8785095,16.2603302
1620,4.01030159,-0.216585293,9.149839401,22.45194244,-131.6488647,16.78775406
1621,4.512723446,0.867544532,7.948721886,36.26834106,-117.0042801,17.5376873
1622,4.515028477,1.832962632,8.922967911,39.38563538,-109.4472885,16.56239128
1623,4.81012249,2.001735687,9.128246307,36.23046494,-120.6558838,21.65574265
1624,4.404616356,1.741385341,9.620911598,25.0194912,-120.4641953,23.3505249
1625,4.308250427,1.511568308,9.795754433,21.57839584,-131.1683044,25.80915833
1626,4.186005592,1.504183888,9.72864151,19.92825508,-130.8533173,28.75593758
1627,4.019638538,1.633690596,10.09790707,17.00298309,-121.9268799,29.16122055
1628,3.861899137,1.71960485,9.816161156,2.798589945,-104.6360321,25.7466774
1629,3.874035835,1.789227605,9.47054863,-11.917099,-91.90930939,21.85433006
1630,3.690147161,1.769521952,8.958517075,-25.0275898,-86.3661499,18.84254837
1631,3.300501108,1.686065912,8.726059914,-39.86534882,-75.65174866,15.78614998
1632,2.648577452,1.997805834,8.433187485,-40.08103561,-66.66992188,14.98166847
1633,2.544584274,1.976429343,8.622970581,-30.33144951,-62.12718964,14.89880657
1634,3.044644117,1.248422146,9.028089523,-26.59637833,-58.49216843,13.74268532
1635,2.915698051,0.45347935,8.924999237,-19.02960777,-53.63650131,4.534364223
1636,3.322743416,0.444439232,8.577845573,-3.356801987,-47.88590622,-2.462949991
1637,4.463931084,0.594283342,8.155685425,2.35320878,-33.91936111,-3.83512044
1638,4.845862865,1.117212892,7.684912205,10.07522488,-16.6207962,-5.853316784
1639,4.323060036,1.108637094,8.026684761,0.431657374,2.397125244,-9.290369034
1640,3.752117634,1.037219167,7.960719109,-22.62434196,16.92652702,-15.75003529
1641,4.39511919,0.706728578,7.546814442,-23.53623772,25.15162277,-18.58612061
1642,5.555356026,0.411696196,7.662384987,-25.19665337,36.89753342,-15.14820004
1643,5.658564568,0.412085742,7.192579746,-14.48365211,45.26713562,-8.405068398
1644,4.889606476,-0.122294866,7.272228241,-13.09341431,55.13080215,-7.213028908
1645,4.337100506,-0.183139741,6.704021454,-6.113349438,61.41604996,-10.38650227
1646,4.599040508,-0.158342734,6.563523293,-6.95093441,83.06931305,-8.659854889
1647,4.730588913,0.004047747,6.487535954,-1.180469155,116.5342865,-6.28953886
1648,4.392980576,0.122350618,7.367019176,2.61284256,137.2072296,-9.488370895
1649,4.272343636,0.688937664,6.971065521,20.87461472,151.8830414,-14.76701927
1650,4.719927311,1.013636947,8.792886734,11.61700916,148.0770264,-17.14541435
1651,5.044408321,1.320405364,9.539784431,1.440720916,141.4730072,-15.28347015
1652,5.360414982,1.157377362,9.531202316,-6.391764164,142.2756042,-11.46711826
1653,5.287798405,0.971553266,9.533997536,-12.6290884,152.1716156,-9.148701668
1654,5.496067047,0.999098778,10.70202255,-29.04328918,161.4963989,-9.853157043
1655,5.459432602,1.554905534,11.05942059,-46.83795166,138.7032471,-5.005804539
1656,4.981230736,1.218489766,11.56315613,-50.70513916,116.3462524,1.830534697
1657,4.550987244,0.498604447,11.95107079,-49.97983551,97.94890594,1.369857788
1658,5.254618168,0.332095057,12.46757412,-36.52639008,70.59307861,-1.828671932
1659,6.997512817,0.713053107,12.77185822,-22.94499779,44.83428955,-5.532252312
1660,7.468405724,1.246705532,11.53628349,-17.79516792,64.93172455,-13.92767429
1661,7.603724957,0.640266299,10.0214529,-4.857694626,66.19273376,-17.35081291
1662,8.298727989,-0.573096693,8.712204933,15.73530102,41.93535995,-11.88866138
1663,7.65385294,-0.96653986,7.533757687,51.733284,16.77157784,-12.55230713
1664,6.14082098,-0.112574726,7.322213173,79.65576935,-41.27319336,3.859079123
1665,5.168951035,-1.068186402,5.258257866,108.176384,-158.730484,58.48682022
1666,1.906965017,-1.206520915,3.041652918,162.6018219,-192.0144196,66.67929077
1667,1.427870035,0.200540647,2.258234262,128.6483612,-97.91785431,22.98118782
1668,-0.499861002,1.041756034,3.750633717,46.40503693,85.84358215,-42.34110641
1669,1.679641604,2.391971111,3.614507914,-70.09472656,226.0184937,-62.57856369
1670,-1.801343203,4.150920391,2.991743803,-99.46089172,272.8212585,-46.35885239
1671,-5.926428795,4.863951206,12.03893185,-73.14522552,374.4927979,-50.06313324
1672,-5.241266251,2.338058472,22.57622719,-97.00650024,298.3853149,-37.4438858
1673,-6.118411541,-2.446789026,11.41899967,-71.51899719,-7.302363873,30.51702881
1674,-2.96770668,-0.499058753,9.784731865,2.192818642,-53.13995743,22.35268211
1675,-0.72139585,0.213938549,10.03170872,51.87179184,-45.47506332,5.029484272
1676,1.063058257,1.865406156,10.13522816,17.87518501,-35.11502838,0.623928726
1677,1.556037545,2.380741596,10.2545023,0.965956926,-40.47201538,10.38705826
1678,0.981040776,1.053457975,10.30760479,-14.73411846,-33.83018875,13.44755173
1679,-1.505826354,0.610266626,9.803271294,-31.31645775,-25.55540657,11.43126774
1680,-2.254696369,-0.062803194,10.5065136,-25.61529541,-4.648605347,16.79648781
1681,-1.7023592,-0.072756015,10.58586121,-1.577692628,-4.360706806,15.59555531
1682,-0.502769887,0.201417282,10.6754055,24.65564537,-7.184328556,6.485708237
1683,0.262500346,0.960411549,10.46391869,32.36048126,3.303595543,-0.239748552
1684,0.148438364,2.049455881,9.973761559,22.94453621,6.848023891,-3.58371067
1685,-0.335002333,2.332148075,10.84875488,6.28260994,1.138785481,-2.598523617
1686,-0.630417407,1.440980554,11.40098095,-12.09569931,-12.15100956,2.727057457
1687,-0.858728647,0.106215775,11.30695629,-8.208942413,-12.19747162,5.699311733
1688,-0.89392221,-0.633897543,11.74710655,-0.268728584,-5.788370132,9.032213211
1689,-1.057155728,-0.18100749,12.15855789,2.704068184,0.403701097,8.643654823
1690,-1.102490783,0.784648597,11.9633503,5.574617386,2.965348959,2.144782066
1691,-1.073727727,1.502434373,11.82303905,6.894677162,1.542915583,-3.150567532
1692,-0.900555372,1.732143998,11.76444721,5.210764408,-2.949706554,-2.028366327
1693,-0.537666917,1.80000174,11.47831059,4.015650749,-11.11231232,1.385711789
1694,-0.362989724,1.596888185,11.37389755,0.541113555,-15.60429287,2.391939878
1695,-0.440801233,1.238129377,11.32086372,-1.922619343,-16.91399002,1.345237851
1696,-0.64035058,0.745799839,11.37580872,-5.761147976,-17.79272842,0.757285178
1697,-0.692357242,0.758378983,11.20388794,-8.272722244,-18.74113464,0.056482483
1698,-0.486213058,1.375567794,10.94773293,-3.416557789,-15.71702862,-0.363060325
1699,-0.251589179,1.746447802,10.46606541,2.778203249,-5.811944485,0.309459031
1700,-0.34513244,1.690305352,10.22176552,3.35649991,1.929769635,2.419446468
1701,-0.644203484,1.420428872,9.749011993,3.871967793,-0.052749351,4.768642426
1702,-0.419216961,1.150798202,9.404893875,8.962878227,-1.442904592,3.392780304
1703,-0.194459364,1.104788303,9.963194847,13.26594734,3.89285779,-1.393280625
1704,-0.174548581,1.135351539,11.47687626,2.91758132,5.884518623,-2.904000044
1705,-0.267472237,1.168666363,12.58191299,-18.60369301,1.223257661,0.652977407
1706,-0.369587928,1.248933554,12.41073608,-21.62201881,-1.37902832,0.100254662
1707,-0.268979609,1.057896852,11.81552696,-7.296662807,-7.923175812,-0.63148123
1708,-0.163615659,1.353105187,11.70460796,4.165122509,-17.37298203,2.04372263
1709,-0.243699342,1.528772354,11.82914734,3.530313969,-22.86065674,4.630419731
1710,-0.275072515,1.136468887,11.94995785,-3.570799828,-29.12611008,4.984426975
1711,0.03879204,0.752215922,11.84745502,-15.37275982,-32.04883957,5.212304115
1712,0.391098022,0.756111264,11.57470798,-22.11446571,-31.55610275,5.227893829
1713,0.619704723,0.823655665,11.20333576,-21.55223083,-33.01552582,4.384271145
1714,0.469718575,0.880769372,10.88121986,-16.03444672,-39.84050369,0.511905134
1715,0.401847869,0.971604586,10.93912983,-8.521710396,-55.69609833,-3.13611865
1716,0.506515384,0.839744389,11.47008801,-1.233494878,-76.98171234,-1.334833741
1717,0.324830174,0.963603497,11.54210663,31.21122551,-110.0463181,11.79636955
1718,0.990171492,1.215005398,7.649410725,74.32640076,-176.7922211,25.84158516
1719,3.7328825,-0.532695591,6.314724445,12.7529707,-152.2835388,19.26107407
1720,3.899037361,-0.615746856,8.65588665,-1.078543544,-107.6224823,2.997557163
1721,3.953713417,-1.258930206,10.75727463,38.59754562,-113.38517,3.084495068
1722,4.384206772,0.658079624,9.942082405,28.50204086,-108.056282,9.849985123
1723,4.2835145,1.881140113,10.0613308,26.25375366,-117.8529587,19.45924377
1724,4.691172123,2.116340876,9.271931648,22.08428383,-122.0508957,19.15893364
1725,4.954421997,2.365441561,9.222998619,19.26930046,-125.7950516,20.54524422
1726,4.50074482,2.211813927,9.485981941,9.041036606,-130.6406708,25.20261002
1727,4.603230953,1.641052604,9.490611076,4.527979374,-137.5178223,27.04201508
1728,4.595373154,1.217080951,9.675379753,4.234236717,-142.0835571,24.99665833
1729,4.177979946,0.6616745,9.602007866,4.68520546,-133.1593781,24.81677055
1730,4.029058456,0.55663693,9.23522377,10.37960625,-112.4568024,24.08281326
1731,4.049865246,0.64921242,8.524703026,7.108588219,-86.67456818,20.86701775
1732,4.135984898,0.53019774,8.01940918,-3.181183577,-63.69029236,14.95913696
1733,3.854073048,0.84780699,7.785927296,-14.03918076,-56.23830032,9.672592163
1734,3.301712275,1.258927822,8.309175491,-21.85224724,-50.67316437,4.584844589
1735,2.597635269,1.485906124,9.083461761,-22.99877167,-48.24210739,-1.197316051
1736,2.251104593,2.172924042,9.161129951,-16.8607235,-40.50966644,-0.57637924
1737,2.719134808,1.844297647,9.013148308,1.923630595,-33.87791443,1.916420221
1738,2.863331556,1.067136526,9.084079742,12.58036041,-24.44627953,-6.634502411
1739,3.162898064,1.226487279,8.86028862,19.16083336,-17.67920494,-12.07648849
1740,3.555187225,1.749982834,8.691165924,14.12619591,-5.559383869,-11.29278088
1741,3.939773798,2.138293266,8.666962624,2.789025068,6.190725327,-7.605962276
1742,4.436574459,2.293316841,9.032759666,-20.27644348,14.30747223,-5.199082375
1743,4.644846439,2.960405111,8.59553051,-15.64037514,34.45652008,-9.644871712
1744,4.896490574,3.03880167,8.564167976,5.342716217,27.26233482,-8.463357925
1745,5.006581306,0.077835366,7.354749203,-4.467394829,12.99279881,0.924420536
1746,5.261978149,-2.193825722,5.983570099,-30.99609566,35.05673218,9.704659462
1747,5.51129961,-2.862075329,6.272939205,-39.11452484,62.07529449,10.28726482
1748,5.402494431,-1.677304745,6.722218037,-22.98921013,92.54844666,-1.114815712
1749,5.120558262,-0.189505339,6.713412762,1.068691015,124.0642242,-14.1954155
1750,5.016767502,0.813457966,6.930832863,18.94852638,144.6919556,-23.64919472
1751,5.163257122,1.515324712,7.723980427,29.36633301,143.0212555,-22.68795204
1752,5.12198925,1.572279453,8.613654137,18.38555527,145.7996674,-18.93246078
1753,5.11460495,1.202736259,8.612745285,1.361603618,154.5438995,-15.73092842
1754,5.067005634,0.661169827,8.88780117,-15.6272068,165.2029419,-13.46464348
1755,5.049921989,0.91394788,10.15892887,-26.59280968,158.2014923,-14.79951382
1756,5.044940948,1.548125982,10.71143532,-18.44116402,144.8018799,-10.94673347
1757,5.025504112,1.136073112,10.53555679,-12.23953724,142.2192535,2.192777634
1758,5.804388046,0.206561655,12.25775528,-37.57405472,122.6584396,13.4460783
1759,5.714715004,0.239009246,11.6885128,-39.51703644,86.0849762,10.36807728
1760,6.001412392,1.491079688,11.26045418,-13.72920609,60.20226288,1.022440672
1761,6.391676426,2.709895134,10.27084446,-14.66722012,85.47343445,-5.888464451
1762,7.262291908,2.013059378,9.63681221,-52.23678589,95.2592392,-14.35232639
1763,7.764866829,-0.120858021,8.941128731,-71.79310608,92.01730347,-20.62016869
1764,7.434018612,-1.41938138,8.071741104,-39.54273605,96.15718079,-27.79132843
1765,5.340352535,-1.928122044,6.416657925,21.19151878,45.07411957,-9.597179413
1766,2.651692152,-1.660526752,6.990202904,79.35481262,-9.47857666,3.012178898
1767,1.599823713,-0.957921088,3.407732487,115.2087784,-31.72978401,-2.899727821
1768,-0.038832992,0.310498297,3.653206348,177.9407959,-24.86095619,-31.88037682
1769,-1.883043647,1.641052365,6.14077282,118.3637772,-6.919737816,-44.27872086
1770,-2.389037609,4.730152607,5.682892323,9.349078178,90.43650055,-38.82564926
1771,-3.266551495,6.163071156,4.061214447,-3.409919024,152.4016113,-4.477569103
1772,-4.306932449,5.799117565,9.765333176,-30.13950348,214.0156708,-2.461170912
1773,-3.296689034,1.063937664,20.63989449,-128.8210144,273.0610352,-29.58103371
1774,-1.552867889,-2.594044685,16.99202347,-177.501709,44.0204277,-3.714894295
1775,-3.530986071,-2.643021345,8.427351952,-65.42658234,-16.1379776,17.48786163
1776,-1.890673161,-1.938491583,9.356368065,50.49232483,-28.2943058,21.22232246
1777,-2.121658802,0.220084608,10.08963299,63.94139099,-13.9752264,13.44442749
1778,-1.576561928,1.56700325,10.44274616,32.47875214,-33.10702133,10.86525536
1779,-1.046923757,1.32659924,9.78372097,13.09305859,-50.62552261,13.40351295
1780,-0.652357996,1.532061458,10.09441948,-11.2594223,-42.69255066,9.606169701
1781,-0.453872859,1.572608471,11.07164383,-27.16412354,-13.06334782,9.713496208
1782,-1.822523355,0.411919087,11.67612457,-33.3953743,-5.181842804,8.866327286
1783,-2.089363337,0.125905544,11.23254681,-13.14986897,-10.42431641,5.745222569
1784,-1.350046992,0.572823226,10.54727459,-6.944061279,-17.01869011,9.989806175
1785,-1.317001462,1.310333252,10.35060501,-23.49768829,-16.91689491,6.396029472
1786,-1.456624746,1.585322618,10.68005943,-36.28646469,-24.88202286,2.525256395
1787,-1.102980971,1.282037258,11.45163441,-27.66850471,-47.53530121,3.483012438
1788,-0.691247582,0.41108802,12.16607285,2.292011738,-57.61226273,6.738070011
1789,-0.514490783,-0.518515706,12.47266865,33.12428665,-44.08045959,12.79320908
1790,-0.803462505,-0.406182826,11.99419308,42.6749649,-25.13239288,13.7856617
1791,-0.99374181,0.402911723,11.40712452,41.06232834,-14.96673584,7.858837128
1792,-0.589720309,1.319036126,11.14988613,39.39793777,-15.3432436,2.811581135
1793,-0.218034938,1.979775548,11.28096008,30.85653114,-18.16770554,4.002123833
1794,-0.143241048,2.309104681,11.36234093,20.05376053,-19.45672035,8.585678101
1795,-0.467513204,1.928775072,11.51070786,16.15605164,-19.44263649,9.300143242
1796,-0.780980587,1.172296524,11.57670975,16.62195015,-21.25634193,6.858785152
1797,-0.782833457,0.427237093,11.52983856,17.9176693,-22.87177467,5.75271225
1798,-0.574932814,0.496113002,11.24550819,19.45700455,-24.35986328,4.982449532
1799,-0.229658738,1.270771384,10.96246719,22.86506653,-23.44301033,6.129905224
1800,-0.048735365,2.130308151,11.01639843,15.81013966,-19.52890015,9.817289352
1801,-0.041686736,2.783899546,10.86253929,3.19574666,-19.2306633,12.09919834
1802,-0.055977762,2.699364662,10.50800896,-5.738175392,-17.56890488,9.107870102
1803,-0.010376366,2.324392796,10.12512016,-10.17209244,-11.34428501,5.955988884
1804,0.38311249,1.868683696,9.95938015,-9.914194107,-4.950181007,5.929080009
1805,0.62605387,1.456989408,10.42420006,-8.646454811,0.703971684,6.207400322
1806,0.577561796,1.428348303,10.56369972,-11.2461586,3.970591307,5.275405407
1807,0.336745232,1.795267224,10.42806435,-16.5680027,6.871568203,2.712509394
1808,0.204432309,2.195808411,10.06356049,-19.92617989,2.260829449,-1.142481565
1809,0.242462605,2.07369113,10.53476524,-16.66435814,-7.981440067,-2.622295618
1810,0.360099435,1.594163179,11.25310993,-14.51466274,-16.86726952,0.933526814
1811,0.570299387,1.241921544,11.48409462,-15.0682869,-20.36023903,4.442584038
1812,1.003257036,1.269434571,10.65426064,-10.3624239,-20.00686455,3.351274252
1813,1.199879527,0.89904809,10.53286934,-11.44408989,-16.62730217,1.829062939
1814,1.259124875,0.53506279,10.55768299,-18.89858818,-15.72251701,3.01122117
1815,1.043432951,0.59759146,10.76163483,-33.9023819,-14.69968224,2.058342218
1816,0.670639098,0.587671876,11.63117695,-55.23622131,-19.44454956,-0.613610804
1817,0.662099183,0.708079636,11.81442356,-61.11721039,-35.72757721,-3.218465567
1818,0.832219005,0.753350079,11.81789017,-63.27542496,-58.22017288,-4.574316978
1819,0.702468038,0.67180407,11.9132328,-61.24580002,-76.69021606,-2.710543633
1820,0.840829134,0.404205441,11.23845387,-42.08978271,-91.15664673,5.316982269
1821,1.835058331,0.099806741,8.731614113,-13.39534283,-130.171524,9.218831062
1822,3.241165161,-0.427648813,8.812994957,-7.73911047,-140.4494019,4.310412407
1823,3.918999672,-1.530134678,9.057717323,0.445720315,-131.9208069,1.230208635
1824,4.252326965,-2.280854464,9.642802238,2.762036085,-117.9830093,0.238830954
1825,4.442975521,-2.145071507,9.902762413,16.78939056,-117.7790604,4.792010307
1826,4.654482841,-1.208979845,9.215891838,33.06623077,-115.4481735,11.04475403
1827,4.563737869,-0.722506464,9.736393929,37.96401978,-114.292099,9.345511436
1828,4.344030857,-0.077308193,9.523666382,42.08886337,-115.6084824,3.672154665
1829,4.314577103,0.552773416,9.381503105,45.97047806,-119.2007065,2.485580206
1830,4.461823463,0.935999632,9.687302589,40.50507736,-118.5402298,6.54273653
1831,4.593585014,1.254637241,10.90816116,23.32199669,-122.1106949,11.96623707
1832,3.85402751,1.579012871,10.79939365,1.513619184,-122.5792923,16.25216293
1833,3.60897851,1.002415419,9.865606308,-16.43851852,-102.267189,14.44528008
1834,3.996779919,0.238373652,9.109136581,-27.21603966,-88.96473694,11.00874996
1835,3.96977973,-0.249087781,8.62446022,-37.63288116,-78.28261566,9.44883728
1836,3.470230818,-0.300367326,8.565136909,-43.68247986,-67.10223389,8.440210342
1837,2.90457058,0.104510412,8.835691452,-37.48143768,-59.85652161,7.325548649
1838,2.443014383,0.941620171,8.830924988,-22.91449547,-57.40132523,7.477505684
1839,2.511333466,1.178987145,8.961450577,-10.11044025,-50.48464966,8.507448196
1840,3.147593021,0.647318423,8.919493675,4.204199791,-37.69963074,6.752202988
1841,3.432416201,-0.1939715,9.016571045,16.33736992,-31.40999222,-0.758369803
1842,3.616972208,-0.28562209,8.630670547,22.85873032,-15.79559326,-10.74411201
1843,4.229506969,0.14380312,8.567461014,28.48838043,9.252015114,-13.49674129
1844,4.553769112,0.548906744,8.343298912,31.53987122,30.29647827,-13.52149296
1845,4.278279781,1.164784312,8.42719841,26.72440529,43.18079376,-9.194571495
1846,3.869972467,1.514509082,9.03491497,30.75465584,38.53610992,1.631408572
1847,4.081023693,1.141789675,9.345314026,64.72688293,9.986650467,18.32710075
1848,4.747894287,0.546428323,6.083304882,39.11333084,28.80158997,16.85690498
1849,5.41583395,0.060571644,5.833892822,4.253530979,39.1128273,5.653439522
1850,6.439223766,-0.897967219,5.462368965,-23.75020409,67.38706207,-7.500738621
1851,6.782788277,-1.472954273,5.562824726,-30.98682022,112.2557831,-5.488602638
1852,5.407404423,-1.576681256,6.391615868,-14.73194504,147.0414429,-1.853362441
1853,4.450901985,-0.906890392,6.349267006,3.139333963,164.3415985,-5.206328869
1854,4.833638191,-0.254586607,8.038680077,7.539171219,158.177597,-9.800069809
1855,5.032670021,0.226918772,9.392578125,0.178132057,153.6477356,-11.8080864
1856,5.035905838,0.253173321,9.580870628,-1.501274586,146.5535889,-9.671897888
1857,5.560293198,0.177196383,9.4804039,2.133868933,150.7297974,-5.105391502
1858,5.46230793,0.203698456,9.788096428,7.930926323,150.9907532,-2.664704323
1859,4.872250557,0.954701722,10.80211639,8.64435482,148.1269226,5.422604084
1860,3.967259884,2.215687513,12.84499645,-19.93198204,141.4567413,12.8172493
1861,4.021363735,2.70132041,14.95772934,-91.7412262,118.6836624,11.54358482
1862,4.916441441,2.508485556,13.02313328,-102.2066422,68.35791779,-0.035232145
1863,6.405119896,0.832406759,10.3531723,-59.26403427,53.24135971,-14.72843742
1864,7.77347374,-2.01783371,10.13990402,-36.91410065,78.81853485,-18.07686996
1865,9.101758957,-2.788467884,8.950386047,-11.30187225,103.7842255,-18.46424675
1866,8.941445351,-3.654182434,8.000135422,5.011688709,89.10004425,-20.49285126
1867,7.45899725,-3.109937906,6.304904938,18.0121727,96.61581421,-23.33271599
1868,4.420079708,-1.852456331,5.141257763,46.42544174,98.88051605,-36.73630142
1869,2.727367401,-0.630280554,3.771700859,87.24954987,77.67424774,-22.22292137
1870,1.96016252,-0.522000492,1.717846394,114.2421112,61.88117981,-10.5948782
1871,-0.693308771,1.887069941,3.657771587,110.576622,66.22357178,-18.57803726
1872,-3.438644409,2.068768978,6.183788776,66.39716339,82.19415283,-22.48392868
1873,-6.396882057,1.712303519,7.969615936,-10.17537308,130.1120453,-33.36024094
1874,-8.47546196,2.337972164,6.579863548,-28.36883926,129.0818939,-29.92900848
1875,-8.412307739,2.574460506,13.0006609,-48.14850235,35.09890747,-5.574603081
1876,-2.63570261,0.083811745,14.31004715,-90.49622345,-26.41679192,4.474115849
1877,1.232567668,-2.541224003,14.48774242,-128.2548523,-91.18165588,1.446379304
1878,-0.154437169,-0.880416095,7.824994564,-43.2401123,-16.84774017,-6.504805088
1879,0.3120974,-0.607220709,11.06144905,20.43176079,-9.761686325,-8.972698212
1880,-1.626374483,0.480834037,9.612317085,32.05624771,-9.060750961,11.46436501
1881,-1.735994697,-0.550591707,10.60613346,36.85873413,-23.98503113,16.70901489
1882,-0.716243863,-0.702512085,9.870292664,0.917975187,-30.25349998,8.791437149
1883,-1.965838194,-1.34526217,9.954007149,-29.1975193,-31.29945183,-0.583019197
1884,-2.079544544,-1.52872014,10.80821896,-8.66056633,-6.628787041,-0.508770823
1885,-2.514696836,-2.076004505,11.08481884,-1.908492804,-11.78265476,0.617298424
1886,-1.488619804,-0.528791249,10.92463684,18.43676186,-18.87581062,-0.385561675
1887,-0.666534662,0.67514056,11.21930218,27.56823349,-16.59755135,2.018717289
1888,-0.940703511,1.370670319,11.10200691,19.81882095,-23.22701645,2.329834938
1889,-0.468246132,1.481400371,10.86125183,16.02717018,-37.82609177,2.087005377
1890,-0.414654046,1.086336017,11.78614235,13.12092209,-39.47522736,5.060376644
1891,-0.926748574,-0.007025242,12.08715725,14.38584232,-38.70043182,8.806284904
1892,-0.937259257,-0.732277036,12.68826962,12.87930012,-44.19169617,12.17065525
1893,-1.016627789,-0.382918268,12.56670189,16.47728729,-41.59647751,6.714270115
1894,-1.096667528,0.24901548,12.06124973,30.98144722,-24.44283295,-3.069660664
1895,-0.355140775,0.9171893,11.77176189,34.76419449,-11.27135658,-3.508904934
1896,0.364940703,1.324340343,11.66315365,29.04176331,-11.52399349,2.785300732
1897,0.360664099,1.317006469,11.34822083,21.73878098,-19.06450844,7.363238335
1898,-0.226540804,1.18120563,11.0469265,22.01132584,-20.14973259,4.20728302
1899,-0.396599352,0.894660234,11.25414467,23.16951561,-17.40069008,-1.257318258
1900,-0.111852787,0.716356337,11.30343533,19.15588951,-15.54894161,-4.273910999
1901,-0.016895108,1.114729404,11.05034351,12.13070583,-11.76442432,-4.519711494
1902,-0.030236512,1.739804864,11.08860207,3.396123409,-9.048469543,-2.472074509
1903,-0.048896987,1.847291589,11.32398129,-0.684717238,-8.372485161,-0.912132382
1904,-0.102323696,1.420574188,11.35603046,-3.8136549,-8.309837341,-0.2849029
1905,-0.088064246,0.879999995,11.44487572,-6.546402931,-6.311739445,0.333586276
1906,0.000760563,0.622552156,11.31521034,-7.147033215,-5.645910263,0.969972253
1907,0.312450469,0.664265692,11.33134651,-8.35262394,-4.775143147,0.58982861
1908,0.582382977,0.796021879,11.76957798,-19.61387634,-7.292215824,-0.996847868
1909,0.619778514,0.959639072,11.96869469,-26.18821335,-10.63502598,-3.428717852
1910,0.300144374,1.378771186,11.23630333,-20.78536606,-5.756886005,-6.051188946
1911,-0.399620652,1.729882598,10.58007336,-13.70929813,0.1053131,-7.867612839
1912,-1.051811814,1.543393016,11.2675724,-16.48593712,-13.29030037,-7.643085957
1913,-0.507530212,1.233730316,11.27671337,-23.67807961,-36.51206207,-5.861327171
1914,0.38926816,0.875501633,10.90473557,-30.93223381,-51.22773743,-4.804772377
1915,1.299699187,0.368446976,10.46486282,-38.35172272,-56.39997482,-2.212051392
1916,1.838926673,-0.206713736,10.42422104,-43.79507446,-56.8564682,-1.573954463
1917,1.965778232,-0.491951764,10.26106834,-42.3800621,-53.6435318,-2.002766609
1918,1.958240509,-0.549519658,10.17483616,-35.50178909,-47.10825348,-2.970034122
1919,1.936590791,-0.831433415,10.56837559,-32.24065781,-48.18408585,-3.591275454
1920,1.8000741,-0.758046329,10.51497746,-36.25090408,-53.90276718,-6.609469414
1921,2.214362144,-0.380109191,9.692118645,-46.1399498,-52.87126541,-7.968071461
1922,2.983482599,-0.036789559,9.026526451,-47.68440628,-59.18647385,-1.950165033
1923,3.171740532,-0.080401085,9.589893341,-20.84464264,-78.77474213,5.454064369
1924,3.613940239,-0.288973391,9.784129143,2.897314787,-70.49042511,6.981780529
1925,3.329477787,-0.601528704,10.33649349,28.98925972,-73.70387268,8.233059883
1926,3.709684372,-0.179225981,10.58376217,48.8208313,-92.21975708,12.53355026
1927,3.750990391,0.311210513,10.28555298,51.04164124,-105.6718521,22.11633492
1928,4.109969616,0.323366523,9.399829865,51.0823822,-121.8561783,30.02707291
1929,4.641414165,-0.373557121,9.14196682,46.68132401,-127.1418839,28.01818275
1930,4.36045742,-1.071371198,10.01301098,32.40092087,-125.4336777,17.62941742
1931,4.059894562,-1.345458627,10.95100689,23.19937325,-137.8866272,4.734289169
1932,3.631630659,-1.384914279,11.02434349,21.09539413,-146.478363,-2.268358469
1933,3.090203285,-0.913997769,10.8115263,25.15519142,-133.2855835,-4.709571838
1934,3.171391487,0.113324597,10.09124756,28.76535988,-119.2284393,1.694081545
1935,3.614197254,0.802777231,9.450995445,29.95427895,-95.73574066,9.2133255
1936,3.425588131,1.268762946,8.384843826,31.3615036,-85.97641754,15.04611778
1937,3.026717663,1.020477057,7.500048161,24.40547943,-75.73609924,15.40824795
1938,2.719189882,0.995538414,7.476724148,17.02706337,-56.96643066,13.1120472
1939,2.609829426,0.914804697,7.96054697,7.54230547,-41.71949005,11.66090775
1940,2.483304024,0.792323351,8.150119781,-4.851676464,-30.05508232,8.083004951
1941,3.814468145,0.271116763,8.253365517,-20.09469604,-19.15870094,6.316001892
1942,4.37225008,-0.502932131,8.019042015,-22.45093918,-16.96866608,3.903367281
1943,3.141599178,-0.561555982,8.261965752,-16.2710247,-3.516320705,-8.736566544
1944,3.222235203,0.074794121,8.740356445,-7.717550278,15.17096329,-6.842068195
1945,3.340547085,-0.01508686,8.006361008,7.324501038,33.06467056,-7.17357111
1946,4.10282135,0.296689212,8.837408066,25.61858749,37.85837173,-9.34346962
1947,4.370867252,0.993281662,7.934997559,37.69979858,26.06764412,-5.500970364
1948,5.08229208,0.975921333,7.187467575,37.86463547,27.70266533,-5.214556217
1949,5.376937866,1.28356564,7.653568745,25.60359573,26.79633522,5.157903671
1950,4.462073326,0.649368882,7.168420315,14.22528648,61.6852951,9.383110046
1951,4.239152908,-0.62679559,7.640431881,-26.42831421,83.94081879,2.203232288
1952,4.429011345,-1.052826762,7.433614731,-35.71760941,100.8944702,-3.575715542
1953,4.312195778,-1.056760192,6.361372948,-14.40435028,110.8975677,-8.246425629
1954,4.566043854,-0.719429016,7.333290577,1.573566556,130.6206055,-11.58444023
1955,4.793253899,0.2353715,8.335093498,-0.831839561,135.8890686,-8.739956856
1956,4.816207886,1.028312683,8.45538044,-2.887742043,141.8734894,-1.580005765
1957,5.139875889,0.680765748,9.467812538,-5.634787083,144.6756134,0.702012658
1958,5.308078766,0.360085905,9.633219719,-26.69773483,149.9826508,-2.236274004
1959,4.704993248,0.642208695,10.4665184,-39.65006638,152.3258667,-4.335174084
1960,4.078204632,0.602156758,9.660216331,-15.1210022,138.3768768,3.679675579
1961,2.596968651,-0.071351111,10.76760197,-32.54959106,129.1740112,10.94147968
1962,4.951295376,0.55292356,13.74991798,-52.80174255,96.3272934,14.51422405
1963,6.200843811,1.263319612,13.80419064,-46.83398819,59.94013596,14.39857864
1964,6.550873756,0.700514853,12.41258717,-33.7057724,71.43921661,12.78947258
1965,7.225907803,-0.989580572,10.44983768,-25.13436127,65.20606995,9.302855492
1966,8.715906143,-2.094321489,10.72558117,8.892478943,52.22202682,0.494938344
1967,8.835637093,-3.552411318,10.59430122,55.54701614,35.59176254,-13.98766422
1968,7.215019226,-2.518095016,8.245619774,36.36533356,30.25735664,-28.74951363
1969,4.805568218,-0.001899231,5.113534927,46.3332634,-9.936091423,-6.9563241
1970,4.074035645,0.514286697,5.642567635,75.64560699,-116.6235428,28.72448349
1971,1.67490387,-1.178170681,1.663255811,90.36386871,-131.3460388,18.12088203
1972,0.649666727,-0.390028119,4.224216461,117.1705704,-62.87665939,-7.949437141
1973,-2.293074846,0.08860828,4.87846899,101.7381897,71.4846344,-35.73899841
1974,-1.884201169,1.626127839,3.881881714,20.27733421,292.0002136,-75.39433289
1975,-3.650028706,3.236662626,2.973680258,-3.32887435,328.1130676,-85.82787323
1976,-5.667039394,4.828158855,10.79800034,21.2226181,317.1658325,-68.53289032
1977,-5.733155251,-0.183697239,24.47027969,-105.8285675,105.5335236,-16.26932716
1978,-3.570370913,1.325934887,11.5646143,-102.4787979,-81.81314087,49.41392517
1979,-2.447473049,1.225834966,9.325338364,-39.30897141,-39.66435242,24.43288803
1980,-0.974510193,0.708078802,10.40720081,12.10503769,-27.28766251,18.61291885
1981,-1.375632882,1.488818049,9.831221581,26.16559219,-18.03838921,9.158041954
1982,-0.621019125,0.710345328,10.1771698,41.89227295,-25.25778961,8.920941353
1983,-0.155053616,-0.310234219,10.41887188,2.796001911,-41.54023361,4.899983406
1984,-1.222393632,-0.632344186,9.697982788,-26.94824028,-36.56158829,3.118196011
1985,-2.188573122,-0.726821423,10.33068085,-14.04204941,-0.865825474,10.47047806
1986,-3.003414392,0.047872547,10.773036,-7.790425777,-6.422233582,5.075228691
1987,-1.376276612,1.227307081,10.57651806,19.33033752,-29.36961555,1.723812222
1988,-0.400235087,1.245923281,10.90328789,12.08564472,-15.56120968,0.14831695
1989,-0.764165282,1.685047269,10.49047089,-12.88002968,-15.67542934,-0.375136912
1990,-0.386363119,1.874758005,9.856362343,-12.61843491,-26.39631462,0.48474738
1991,-0.245186731,1.470403075,10.96552849,-8.496741295,-30.42728043,1.513677359
1992,-0.492907971,0.517376125,12.16535187,-6.691011906,-39.89958572,7.568232059
1993,-0.864009023,-0.189093783,12.69946384,-3.03262496,-45.65778351,11.36799145
1994,-0.857903063,-0.35363239,12.48151016,24.69966888,-34.52045441,3.428710699
1995,-0.518628538,0.095735431,11.92289162,45.09267426,-12.86360264,-3.176459789
1996,0.179333195,1.046764731,11.50208569,49.04772186,5.143336773,-3.59783411
1997,0.457028657,1.634711266,11.57067871,34.90288925,1.78716588,-0.116461448
1998,0.056123905,1.908943653,11.53642464,16.9767189,-12.22950649,1.893325925
1999,-0.446733773,1.868579984,11.45355892,8.758825302,-23.50300598,2.580183983
2000,-0.653461933,1.256646752,11.4393549,10.98103714,-20.88350868,1.11655581
2001,-0.407369435,0.870021582,11.36797905,13.8680439,-9.684723854,-0.716874599
2002,-0.115845129,1.218122005,11.15325642,16.41331482,-7.660363674,-1.872002244
2003,0.107267186,1.60906589,11.08881855,15.37150478,-10.07100105,-2.362300396
2004,0.204800159,1.836119533,11.1087141,13.93857002,-11.85788822,-0.517197967
2005,0.148372978,1.710623264,11.0986557,8.933452606,-8.106987953,2.68337369
2006,-0.00093241,1.452772856,11.22723484,5.477641106,-3.23515296,3.523315191
2007,-0.075674944,1.280869961,11.36414337,6.017505646,1.184401751,2.733739614
2008,-0.082107335,1.384142876,11.43834019,9.547272682,3.587412119,2.160784483
2009,-0.121317938,1.701246381,11.27909946,13.35666561,2.124363422,2.731423378
2010,-0.2742621,1.943476915,11.03864765,12.34328556,0.898308277,2.892527103
2011,-0.382416278,1.959474564,11.00702763,7.45631361,-1.448488235,3.156938791
2012,-0.359043002,1.910868645,11.16417503,-2.284268618,-3.170724154,4.444680691
2013,-0.257624,1.881685019,11.21653938,-17.88570595,-4.733899593,4.271250248
2014,0.072100684,1.723242521,11.29134083,-35.6001091,-10.18752575,4.681326389
2015,0.508841276,1.221399784,11.57041073,-42.30437088,-19.84145355,4.387815475
2016,0.726062775,0.950754523,11.44397259,-39.24832153,-25.79378891,3.19898057
2017,0.785066783,1.125583649,11.22660351,-27.61154556,-24.89461327,3.274451971
2018,0.634716451,1.573921561,11.16758347,-17.60720253,-21.41814041,3.946409464
2019,0.582082927,1.938089371,10.64479256,-10.28958321,-16.52119827,5.271120071
2020,0.476263404,1.746915936,10.23563957,-11.21971607,-8.118067741,5.492013931
2021,0.701965094,1.129641891,10.20111465,-14.00910759,-6.061608315,3.245483875
2022,0.943284333,0.664739907,10.69375038,-16.82019043,-11.98553085,-1.416717291
2023,1.35034585,0.637177646,10.60284424,-11.9377718,-17.41030693,-1.265442133
2024,1.412428021,0.815075159,10.68717194,-12.34723663,-17.97737694,0.634920597
2025,1.093118787,0.836114049,11.13264179,-20.71306419,-24.58493614,1.334317446
2026,0.734369099,0.856712878,11.58480072,-24.56635094,-37.47409821,-1.872378349
2027,0.557563543,1.145077705,12.33090687,-9.5586586,-52.27510452,0.272854835
2028,0.025217175,1.069804668,12.02235985,22.86318016,-100.5891495,12.87625694
2029,1.729844928,1.037283659,7.807175159,24.59650612,-145.4015808,19.27845955
2030,2.855550289,0.271324217,8.440716743,-7.371902466,-121.3194046,13.76955605
2031,3.654201508,0.240564272,9.664625168,6.794692039,-113.8256531,12.96100426
2032,4.047708511,0.015092941,10.30282879,16.23988342,-122.8212433,19.22446632
2033,4.014263153,-0.10008575,8.960165024,24.2155304,-122.1270752,17.60200119
2034,4.171079636,-0.016025078,8.561160088,39.68468475,-115.5777283,12.24475098
2035,4.315765858,0.152821988,8.959820747,57.16729355,-113.6969986,10.7075119
2036,4.833666325,0.903669,9.22582531,65.46247101,-117.5846329,12.6475029
2037,4.911461353,1.72508347,9.869211197,58.476017,-130.3944702,17.05833626
2038,4.592237949,1.72198391,9.90012455,39.21475601,-139.1351166,18.72477913
2039,4.356865883,1.235160112,9.317290306,27.41035461,-127.7024231,16.52501106
2040,4.224318504,0.980297387,9.257554054,25.81970215,-107.7147446,13.37115288
2041,3.95488143,1.134775639,9.620342255,17.83891869,-92.55106354,11.05854988
2042,4.081143379,1.156125426,9.568141937,1.111600637,-84.4169693,12.63866329
2043,4.039050579,0.825123906,8.982646942,-15.66755962,-75.54629517,12.25022125
2044,3.76841259,0.074852496,8.528839111,-13.92710781,-68.60151672,5.371569157
2045,2.95455718,0.827042997,7.820013046,-2.773234367,-57.92457581,1.490439534
2046,2.230653524,1.842308402,8.123790741,14.71721745,-50.02016068,2.721087217
2047,2.195031166,2.630825043,8.603880882,20.05456352,-48.91800308,4.855940342
2048,2.444156408,2.538718224,8.79709816,12.07435703,-50.27937317,5.778068542
2049,3.066935539,1.839770317,8.251126289,-5.419230938,-48.26113129,3.602872372
2050,3.413194418,1.073447704,7.938124657,-10.27318859,-40.17872238,-0.81945765
2051,3.87996912,0.718846023,7.583306789,-4.269354343,-27.6959095,-4.733406544
2052,3.722298384,0.795957565,7.374673367,19.9379921,-20.16104889,-8.685882568
2053,4.642031193,1.068184853,7.428665161,18.78158569,-0.138027057,-10.24866962
2054,5.712180614,1.454883575,7.062695026,7.438200951,34.30712891,-11.06669903
2055,6.683251381,2.439071178,7.152389526,6.420397282,53.87834549,-7.994794369
2056,5.870100975,2.692878962,7.149805546,-5.13985014,61.91683197,-13.57861042
2057,4.643227577,2.090537548,7.227037907,-12.49223423,51.1037674,-20.77012062
2058,4.862168789,1.046890497,7.124575138,-26.19094467,62.62563705,-19.58241844
2059,5.180370808,0.402974755,7.015580654,-29.9930172,76.23425293,-12.09460926
2060,5.360216618,0.309553117,6.750886917,-24.39134789,97.96787262,-11.16152287
2061,5.158830166,0.596197426,7.423787117,-1.905137658,115.5706711,-13.80279064
2062,4.271544933,1.304048061,6.277980328,16.69556999,129.3972321,-20.64339066
2063,4.623095989,1.81008184,8.459767342,12.58445835,128.8727875,-22.81677055
2064,4.693606853,2.117473602,9.189457893,-2.336507559,117.1915283,-21.81861877
2065,5.059916973,1.848352432,9.201745033,-21.54427147,125.5766907,-19.25990677
2066,5.724986076,1.480326653,9.553612709,-45.78464127,139.3249512,-17.44533157
2067,5.659678936,1.607756376,9.91131115,-37.62679291,145.7995758,-13.12163639
2068,3.525245428,0.214476466,8.924671173,-22.67255211,136.7657776,-7.024092674
2069,4.057027817,-0.348908752,9.647260666,-39.59753418,104.2920685,-3.576073408
2070,3.692994118,1.254023671,10.17187023,-21.13095284,81.25302887,-4.240557194
2071,4.517350674,2.937898874,11.28438282,-18.59379196,53.5227623,-7.335741043
2072,5.968997955,4.20686388,11.86352348,-36.21930695,39.63811874,-6.863057613
2073,7.387588501,3.859760523,12.07162189,-56.02790451,49.80265045,-2.67559433
2074,7.998765469,1.735018015,10.78122711,-50.61336136,58.69324493,3.234766483
2075,8.26064682,-0.603462338,9.220257759,-24.32187462,63.84023666,3.48162365
2076,8.057492256,-0.915550768,8.828440666,17.36069107,69.08309174,0.144246891
2077,7.249472618,-0.546818733,8.402509689,40.8724556,70.0670166,0.491743147
2078,5.987006664,0.207688436,7.306402206,51.77648926,59.83895493,0.434292108
2079,4.450086594,0.909273565,5.541845798,62.27951813,59.9537468,-7.9503088
2080,2.394879341,1.233805299,5.358974934,51.31623459,64.96871948,-17.55489349
2081,0.011614133,1.68773365,2.932492018,54.90861893,76.02559662,-24.37473106
2082,-2.771224737,1.975959182,4.292685032,33.73862457,89.55010223,-24.44658852
2083,-5.437669277,1.93395865,8.431686401,-7.806048393,89.87155914,-18.28501511
2084,-7.469211578,2.241210222,7.54202795,-29.90886879,10.01590347,7.810948849
2085,-5.991221905,1.917765856,10.17078304,-17.99291229,-10.56917381,7.17466116
2086,-1.083068609,1.177288175,11.42232513,-30.16784668,-29.63615036,7.50581789
2087,1.619997144,-0.866626322,17.78692055,-41.42165756,-10.53899193,9.494377136
2088,2.20184803,1.445024967,9.726671219,9.338805199,-14.27286053,9.589169502
2089,2.179474831,2.248194933,10.38577747,77.25199127,6.127783298,-9.344954491
2090,0.539282441,3.822223663,10.46101093,55.62784958,1.822561741,-1.166786432
2091,0.659650624,3.135004759,10.80131721,18.37096786,-19.12659073,12.33890438
2092,0.299127072,1.565707088,10.70216084,-36.36454773,-22.17317581,7.677361488
2093,-0.345663786,-0.12793836,10.24392223,-67.69842529,-21.5360527,3.606774092
2094,-0.863502145,-0.482664585,10.22076988,-43.13581848,-9.257247925,3.422168016
2095,-1.459326029,0.027331602,10.70796871,8.140585899,-9.554605484,2.73152566
2096,-0.966477394,1.286333799,10.48654079,16.09871292,-11.61284065,0.568634748
2097,0.474585295,2.577972651,10.17555141,9.256954193,-10.18204021,-6.084198475
2098,1.054471493,2.303016424,10.47415161,-13.54855537,-7.232393265,-10.00977421
2099,0.90164119,1.324272633,10.7876606,-28.39831924,-18.3640728,-1.934419751
2100,0.595136821,0.040862899,11.66120625,-19.3676796,-29.26563644,2.677223921
2101,0.448328853,-0.503641307,12.17085171,-10.43488026,-29.68979454,-0.318495035
2102,0.022304982,0.251988888,12.26235199,-6.261109352,-17.49454689,-6.31784153
2103,-0.299824536,1.207929373,11.70828915,-1.70056951,-10.70930672,-11.37543011
2104,-0.024029395,1.74403286,11.30700207,5.997082233,-5.085276127,-10.87368488
2105,0.610217929,1.713925123,11.32323456,15.00346661,-5.420075417,-6.147233486
2106,0.935331047,1.549000263,11.15775585,16.2170887,-10.01999474,0.008023187
2107,0.718906403,1.557779551,11.15904331,8.338609695,-9.49862957,4.478684425
2108,0.32023105,1.3558079,11.2826643,3.219690084,-8.955714226,2.991763115
2109,0.537032008,0.929828763,11.29822922,4.089728355,-7.459995747,-1.706664562
2110,0.585899174,0.720000267,11.19644547,3.154941082,-5.9286623,-4.158939838
2111,0.555382073,1.28640914,11.34211826,-0.496758342,-5.109849453,-2.490028381
2112,0.800340593,1.746427536,11.18731213,-0.48938188,-3.846912861,0.69481498
2113,0.933288336,1.528416634,11.03649998,-1.669051409,-1.897478223,-0.797528148
2114,0.825738728,1.026276708,10.7871809,0.462687105,-1.970756769,-3.232156754
2115,0.790814936,0.903077602,10.41224766,8.487313271,-0.232038289,-4.96614933
2116,0.684753597,1.402473092,10.45487118,14.29727364,9.73939991,-6.125270844
2117,0.629297853,1.904671431,10.90376091,-2.807749271,14.34497738,-4.402346134
2118,0.579342306,1.875220537,10.92639256,-20.9248867,13.0503149,-5.231360435
2119,0.415542781,1.809558511,10.97701836,-33.52184677,10.99898148,-8.499664307
2120,0.21765174,1.844819069,10.91182709,-31.90636826,9.279998779,-9.485816956
2121,0.092615932,1.530163407,11.1036911,-30.61473465,7.033521652,-6.446624279
2122,0.096403599,1.448396921,10.97037029,-32.74983978,3.572299957,-1.903056383
2123,0.374531299,1.299510002,10.60994053,-35.83485031,1.581226349,2.151047468
2124,0.376059413,1.164313555,10.57161903,-45.95220566,-0.982689857,3.687622547
2125,0.470500529,0.950970531,10.45644951,-51.40873718,-2.427722216,2.704745054
2126,0.470519364,0.560256302,10.47509766,-49.97256088,-3.957568407,1.892763495
2127,0.675583959,0.060731176,10.51656246,-38.01328659,-6.983095169,2.12809968
2128,0.932475984,-0.387746096,10.78807354,-26.91624451,-9.679655075,1.72437346
2129,1.234481573,-0.338062435,10.4736681,-17.82408142,-8.16677475,1.479564428
2130,1.146508098,-0.233946696,10.58450794,-20.26513481,0.068475641,-0.548848867
2131,0.887995005,-0.423816055,11.10463524,-30.26353455,-1.480271459,-1.955683231
2132,0.657778442,-0.649306595,11.41579723,-35.39358139,-11.24897289,-1.420679212
2133,0.612523019,-0.808241785,11.58890438,-33.6463089,-23.22596359,0.217958927
2134,0.780403197,-0.634720564,11.39752388,-27.47818184,-36.49321747,1.970188379
2135,1.027807832,-0.168012887,11.02266502,-17.19712448,-51.53832626,3.567099094
2136,0.989095747,0.273116618,11.32085419,-0.447589457,-69.26052094,2.190095663
2137,1.032568812,0.177207947,11.41478062,20.54372597,-85.07679749,2.071053982
2138,1.528586626,-0.629582286,11.31986427,23.16382408,-94.89402771,5.563720226
2139,2.5350914,-0.826999724,10.17626572,29.68833923,-107.7474747,10.78380299
2140,3.39906168,-0.923793554,9.115582466,28.40854073,-109.8427963,10.34886837
2141,4.080953121,-1.055402517,8.757474899,32.26822662,-108.4478073,9.498791695
2142,4.233741283,-0.827048004,8.641002655,40.86074829,-105.7570343,7.819943428
2143,4.829542637,-0.065624394,8.535257339,47.61824036,-104.2516937,8.045521736
2144,4.913094997,0.047648326,8.988021851,48.94589996,-108.9241333,13.34018898
2145,4.568949223,0.611946166,9.366819382,43.39704514,-114.4834595,15.63414478
2146,4.345213413,0.907571077,9.589862823,36.74886703,-119.8351517,22.41194153
2147,4.439463139,0.541003883,9.614823341,34.0579071,-121.3260574,28.29121399
2148,4.021098614,0.127650887,9.817177773,36.43177032,-117.1606369,25.95767975
2149,3.668409586,-0.000589106,10.21319008,41.27060699,-110.4961243,21.03886604
2150,3.510403633,0.507198274,10.25150299,34.98583603,-97.44910431,20.14864159
2151,3.674492359,1.333302259,9.65215683,27.13814545,-92.9853363,20.45214653
2152,3.461066246,1.845458031,8.657777786,18.90378761,-88.23011017,22.29036522
2153,2.760553122,1.15287745,7.654207706,12.68156242,-78.33351898,20.39713478
2154,2.824287653,0.742874205,8.069072723,15.88394642,-62.00179291,12.73048878
2155,2.752655506,1.58847332,8.13114357,17.20503616,-50.38644028,8.502485275
2156,2.718034983,2.437494278,8.880678177,13.46909523,-40.97822952,4.066689491
2157,2.903178215,2.260831833,8.96339035,-4.518496037,-33.57154846,5.443482876
2158,3.308619976,1.521842241,8.319420815,-15.41794872,-21.03914261,4.727661133
2159,3.309200764,1.162890911,8.368982315,-9.942988396,-13.37612915,1.197337151
2160,3.518425465,0.503765643,8.260902405,2.360447645,-7.829817295,-0.899351835
2161,2.955302,-0.184073836,8.651473999,10.04499626,11.9586134,-4.926300049
2162,3.419783592,0.213615194,8.546825409,-9.944025993,29.37285614,-7.740966797
2163,4.10206604,0.809741914,7.856831074,-19.72559547,41.20716858,-12.23392391
2164,5.283145905,1.039309621,8.512155533,-22.57840157,50.24262619,-11.72191238
2165,5.876337528,1.246380806,7.510529995,-12.88669491,50.93841553,-2.119676352
2166,5.375438213,0.468796641,7.114463806,-22.03360558,65.78833771,-1.101876855
2167,4.325820923,0.172116846,6.892785549,-32.16294098,83.96450043,-2.829989672
2168,4.4109869,-0.072250351,7.079083443,-29.16498947,94.31002808,1.421137571
2169,4.477928638,-0.431085914,7.301568508,-24.46182251,117.5337067,-4.610558987
2170,5.011189938,-0.183546811,7.887480736,-20.67105675,131.4406738,-11.94792461
2171,4.842411041,0.10072659,8.211009026,-23.83160019,141.1065521,-18.65968323
2172,4.629187584,0.646984816,8.969884872,-27.38773918,150.1162262,-17.78574944
2173,4.262979031,0.757242918,9.258023262,-29.89370728,143.4951935,-5.992622375
2174,4.352800369,0.142409921,9.507809639,-37.24801636,146.8543854,0.757371128
2175,4.821941376,-0.429465204,9.675173759,-55.17689133,153.7229919,1.705498815
2176,4.756142616,-0.219870105,9.623800278,-70.80455017,141.3707886,4.033210278
2177,3.889389992,-0.129952133,10.11475372,-49.80319214,126.4131317,10.0116787
2178,3.314513683,-0.694948077,10.59797955,-23.3026123,119.5018539,12.70362759
2179,4.49493885,-1.985867262,15.03567314,-89.5554657,98.9641037,8.505725861
2180,4.911222935,-2.060959816,13.70168114,-63.56794357,64.83698273,1.307482958
2181,5.610691071,-2.012732029,12.25678825,-0.538051546,53.46579361,-6.118309021
2182,6.650764465,-0.060696237,11.51636028,20.75619125,63.4455719,-15.10969543
2183,6.541415215,1.476806164,9.066802979,32.7352066,73.85662079,-30.5718689
2184,6.623104572,0.224912271,6.38574934,43.57949829,42.54789352,-33.82548904
2185,5.694068909,-2.340165854,5.274484158,44.66281128,5.378771305,-21.01921844
2186,5.92211628,-5.065877438,7.410129547,84.68856812,-30.26981163,-5.646441936
2187,5.036248207,-3.534338713,3.673604727,150.9945831,-52.2143364,-13.5380373
2188,1.759341359,0.015994024,3.391009808,120.9091949,-43.43961716,-27.31492805
2189,-0.8388713,1.16564548,2.992025137,53.80161285,15.69240952,-10.50410652
2190,-1.714039683,0.888775766,4.074896812,34.71196365,153.0719452,-0.540730953
2191,-5.237539768,2.730728388,7.176609516,-1.111148238,320.1251526,-15.75038052
2192,-9.894771576,4.554604053,12.09515667,-50.38348389,240.1794739,-8.44890213
2193,-9.029798508,4.82288456,12.17755699,-60.75169754,-9.841576576,47.70240402
2194,-7.605237484,-1.220812082,14.88406277,-118.6091614,-153.674118,26.63033676
2195,2.2170012,-0.7128672,11.12627411,-45.33058167,-58.01743698,5.119237423
2196,2.527694702,-0.924471498,12.86449909,1.467648149,-40.14075089,8.071178436
2197,1.662512183,0.568582833,10.08764458,37.33858109,-19.89059067,8.680680275
2198,1.371215463,0.204406619,11.32176495,49.31461334,-13.00149441,14.80293751
2199,0.254258484,-0.143701375,10.91506672,40.10204315,-13.73784828,18.83150482
2200,-1.1444242,0.097502008,10.75228119,23.82304192,-8.677222252,10.64040756
2201,-1.81272316,0.564686537,10.35819721,7.925263405,-26.4337101,3.619551659
2202,-1.980883598,0.779758751,10.41373444,17.92399597,-13.82615089,16.14922333
2203,-1.51608789,0.419836551,11.44930267,11.61243725,-2.588763952,21.05307961
2204,-0.320909351,0.607806683,10.81150818,-9.049057007,-27.91731262,14.79518032
2205,0.467335135,1.074261904,10.43778801,-10.25467491,-28.7393322,3.596854925
2206,0.666590154,1.983163834,10.57398224,10.99690723,-22.42967987,2.280655861
2207,0.501013339,1.9794451,11.87057495,31.5024929,-21.01415634,10.46332359
2208,0.008994777,1.269537926,12.4570961,39.21643448,-19.17214203,10.81861973
2209,0.01489484,0.903495431,11.99246883,37.77602005,-15.84345913,5.018717289
2210,-0.208437279,0.645093441,11.33479023,25.55041695,-9.123113632,1.416763663
2211,-0.60309124,0.599068046,11.1498909,23.58093452,-2.316890717,-0.530055821
2212,-0.312009186,0.98361212,11.52202797,27.22887611,-2.56620717,-1.109007239
2213,0.086387336,1.551708817,11.81712532,21.38958359,-7.191137314,-0.758611143
2214,0.09170039,2.202348232,11.65792942,13.35336781,-12.58855247,-0.305982411
2215,-0.292236328,2.099159479,11.25133801,9.753026009,-14.75677395,-0.625962317
2216,-0.250468612,1.542464137,10.84948921,11.13312149,-10.5539465,-1.321571589
2217,-0.039624613,1.116104722,10.96705914,9.464176178,-5.17881918,-0.238268614
2218,0.037524737,1.006316304,10.96222115,7.719951153,-3.796500921,-0.326798916
2219,0.223429963,1.413282633,11.08615494,7.436553001,-4.730052471,-2.230290413
2220,0.170714781,1.997680306,10.88109398,4.557838917,-7.836873531,-1.958117247
2221,-0.022405911,2.327227116,10.45725822,4.311765194,-9.426654816,0.867316723
2222,-0.11377389,2.232190609,10.49259949,2.176459551,-12.7565794,4.655207157
2223,-0.013272271,1.84728241,10.69415283,-1.248620033,-13.63153744,6.789426327
2224,0.178433552,1.148031831,11.03227234,-5.623989582,-9.74018383,9.012277603
2225,0.24566105,0.551788807,10.98090458,-6.915099621,-2.726870298,9.940402985
2226,0.221359015,0.49205634,10.43816566,3.376010656,2.529536247,8.144289017
2227,0.38511011,0.899463058,10.26305008,13.31951618,2.765808821,6.320930958
2228,0.606210351,1.352203488,10.34486675,15.36146832,4.118557453,5.445360661
2229,0.654112279,2.063908339,10.74929905,6.315958023,4.122255802,4.523504257
2230,0.485863686,2.478525877,10.84165668,-6.848926544,-0.438643187,4.917491436
2231,0.423112333,2.20596242,10.81551075,-14.92943764,-1.784502506,5.824134827
2232,0.445891827,1.502090573,11.04455948,-20.78598213,-3.785627365,6.351774216
2233,0.515138209,1.0347929,11.16820717,-20.73020744,-12.73343182,5.264490604
2234,0.819644213,1.057909131,10.82864857,-15.40201664,-16.27185249,2.845863819
2235,0.80880183,0.90892756,10.57672977,-15.88288975,-9.754685402,-0.066580288
2236,0.745019734,0.497604221,10.58088017,-16.75341415,-7.42214632,-1.89351058
2237,0.671509743,0.115556449,10.65609932,-15.27777386,-13.85829163,-4.513624191
2238,0.466942787,0.376124322,10.15338898,-11.87183952,-21.30211258,-6.900083542
2239,0.548522055,0.665105581,10.09241676,-9.819087029,-27.11453629,-3.881366968
2240,0.762257397,0.69495821,10.97505188,-17.80500412,-36.51156998,0.710967898
2241,1.043087363,0.859972358,11.35443115,-26.43919945,-52.66532516,1.260601997
2242,1.442086577,0.739749134,11.34858227,-28.42038918,-64.41081238,1.382322431
2243,1.764266491,1.266387343,11.15204048,-27.91748428,-80.0664978,0.652480841
2244,1.933852792,1.806830287,11.13600254,8.73298645,-101.3780365,4.43460989
2245,2.287269592,1.086085558,10.63067436,41.55710983,-123.0046616,11.09860134
2246,3.416739225,1.356269121,8.773638725,51.54369736,-141.2713013,15.96603394
2247,4.065127373,0.723562062,9.882793427,84.91297913,-139.4834137,22.33686829
2248,4.85507822,-0.080049276,9.046550751,65.99250793,-122.6368942,23.4007206
2249,5.086728573,0.577338099,8.6308918,49.74436569,-106.0946274,24.44514084
2250,5.405941963,1.334486365,9.068638802,54.71186829,-111.74189,24.50206566
2251,5.101590633,1.653493047,9.438593864,56.1666069,-115.4833069,20.28079987
2252,5.266352654,1.748502016,9.591000557,51.1923027,-119.4644775,20.01942635
2253,4.920602798,1.777663589,10.08307171,31.4833107,-119.0583115,20.40541458
2254,4.516554356,1.813086033,10.0902071,10.73407555,-107.5448761,17.99176598
2255,3.62702322,2.110230207,9.952464104,2.459282875,-97.27774048,21.02236366
2256,3.501359701,2.292743206,9.491110802,-8.188858032,-93.96463776,24.32112503
2257,3.609436274,2.136545658,9.206564903,-19.0452404,-91.29163361,20.12325668
2258,3.742757797,1.980773926,9.040799141,-35.14691925,-85.54627991,13.02264595
2259,3.3802526,2.019871473,8.818878174,-41.41879654,-74.73134613,9.405246735
2260,2.941855669,1.926110864,9.543824196,-38.9045639,-61.76602173,9.522516251
2261,2.865615129,1.880649686,9.570281029,-28.29367447,-57.85943604,11.92219448
2262,3.237379551,2.073157549,8.628563881,1.701238275,-60.87229156,14.82993889
2263,3.831020594,1.163644195,8.359524727,31.12112808,-67.92408752,12.73448944
2264,3.859529972,0.189276204,8.723304749,21.58506203,-60.45895004,5.371682167
2265,4.074915886,0.455621868,9.032437325,21.68141174,-54.81994629,-2.772762537
2266,4.479762077,0.892009318,8.723067284,18.26525879,-40.77949142,-8.499917984
2267,4.266815662,1.109367967,7.998514652,11.21454048,-11.80127144,-9.056865692
2268,4.066533089,1.060201883,8.026782036,10.07110977,3.426399946,-15.15866089
2269,4.625110626,1.651047826,8.828999519,14.05968761,7.639770031,-22.17549515
2270,6.197241306,1.643896222,8.339067459,11.44962883,19.32095146,-23.02282524
2271,7.199906826,1.825871468,6.556742191,14.88203335,45.33558273,-17.98350906
2272,6.675415516,2.065134764,5.847041607,24.76723099,69.12059021,-19.0146637
2273,5.433167458,2.195054531,5.979369164,9.106671333,84.98017883,-20.63949585
2274,4.428175926,1.875788569,6.231508255,-11.6855526,120.7671967,-22.57245636
2275,3.823624134,1.608121753,7.834723473,-31.07239151,135.0848541,-20.63737679
2276,3.757363558,1.480489612,7.271381378,-34.39024353,129.8695679,-15.6333847
2277,4.120589733,0.870949805,6.727948666,-5.523476601,138.9395905,-12.73629189
2278,4.271821022,1.214582086,7.910339355,16.95506859,140.8819122,-18.46364403
2279,3.895444632,2.175058842,8.030835152,27.18453789,145.5786743,-29.62820625
2280,4.715441227,3.052008152,9.16603756,-1.147090912,144.6872559,-37.19636536
2281,5.307237148,3.21096015,9.788838387,-40.30098343,146.2078705,-39.5990448
2282,6.062081337,2.478188276,10.69295025,-71.03536987,146.8609772,-36.41918564
2283,7.172973633,1.06680584,12.09552097,-117.4178925,131.8051605,-23.70811081
2284,6.392064571,-0.482131243,10.83248806,-101.148941,136.6236877,-12.75130749
2285,5.455752373,-0.585567772,9.826745033,-50.21816254,101.5111923,-10.43283463
2286,5.151683331,1.525217772,9.180102348,-5.269480228,57.26863861,-22.61421013
2287,5.388867378,4.114377975,9.525936127,-12.3575058,48.08513641,-34.18162155
2288,6.500178814,4.405646801,10.38921261,-65.69862366,64.67429352,-36.69345474
2289,7.642278671,2.602207422,10.47176361,-123.1928711,70.32465363,-29.67475128
2290,8.717940331,-0.196000427,8.879413605,-112.9352493,56.08155823,-15.66756821
2291,8.539356232,-3.144039154,7.714097023,-37.39017868,56.76974106,-2.082538605
2292,6.966775894,-3.393635988,6.010482788,31.33316231,80.98023224,1.178209186
2293,4.883964062,-2.640990257,5.472563267,46.84993362,85.55229187,19.41191483
2294,2.483914137,-0.267655075,-0.563587725,79.0664978,62.86910629,18.0737648
2295,-1.310287714,2.763639927,3.604388714,102.5506439,53.80505371,-14.80305862
2296,-1.52831316,3.18217659,5.567275047,26.26442909,2.120271683,-19.99254036
2297,-2.993992329,1.12583375,6.494223118,30.91485023,-30.25012207,12.9734745
2298,-5.921394348,0.1429611,7.633681297,8.051267624,60.2942276,11.40183735
2299,-5.604642391,0.234359041,7.770083427,-21.68181229,159.6268921,-7.864235401
2300,-5.965586662,2.165452003,19.19248772,-73.97771454,59.83525848,26.19003296
2301,-3.648045063,-1.949263573,11.93011951,-75.7383194,-12.16669083,26.0183506
2302,-0.508358002,0.358192056,13.82429409,-50.38624191,-66.76433563,14.69188213
2303,0.272530228,0.798879623,10.81584454,-15.62071609,-43.31240845,-7.956543922
2304,0.25650093,0.842645586,11.20686436,2.45623374,-30.4580307,0.750947535
2305,1.368274212,0.784364581,10.92170048,7.303600788,-48.84116745,16.69028473
2306,2.011360168,0.367600769,10.91099834,-7.661617756,-58.69881058,18.52434731
2307,1.419403434,-1.129790545,10.32968903,-34.33982849,-42.96607208,2.277063847
2308,-0.657918811,-1.95057404,9.973596573,-3.191057682,-29.76033592,0.367306471
2309,-2.928777695,-1.433442473,9.928937912,38.33159637,-7.514206409,10.25582409
2310,-1.947422266,0.945621848,10.29414749,40.64626312,-16.51880836,10.03568459
2311,0.612390578,2.532827139,10.81719112,21.58172417,-24.46125031,6.740706921
2312,1.343189716,2.76782608,10.89835644,-11.38033581,-11.4551754,-1.205283642
2313,1.237368703,1.751707673,10.74051666,-22.43226624,-16.85893822,1.910334826
2314,0.957817376,0.277679443,10.91405869,-8.748252869,-16.56783485,7.743113995
2315,0.472672284,-0.69104737,11.46016312,6.054424763,-10.08867836,10.40210724
2316,0.690384448,-0.278128296,11.77187157,6.037145138,-11.7321682,14.56379032
2317,0.67314291,0.720206261,11.81379795,-3.280364037,-12.17082596,15.97990704
2318,0.177947223,1.284360886,11.66017246,-2.240806341,-11.92311954,12.35372829
2319,-0.128688291,1.592740059,11.6542902,6.755345345,-6.324790001,7.833244324
2320,0.46032086,1.541238308,12.12410355,4.561630726,-4.906140804,10.63873386
2321,1.1614573,1.137090206,11.87922287,-2.085914135,-11.03469753,16.70939636
2322,0.336552352,1.016273975,11.80254364,-5.740071297,2.735693693,11.15130043
2323,0.158125743,1.430685639,10.88868523,-15.45592213,-0.989208758,12.31473351
2324,0.702649772,0.739015698,9.82148838,-8.817744255,-7.319643021,12.17032814
2325,1.121474147,0.40162462,9.834857941,-11.0628624,-3.105759859,9.628108978
2326,0.828859031,0.783509731,10.09393406,-20.50684929,4.519837379,11.72876358
2327,0.695374131,0.837291181,10.54467297,-23.47227669,10.49673653,13.42847633
2328,0.743624449,0.491279393,11.02073765,-35.15904236,8.424040794,13.01478195
2329,0.455711216,0.11009492,11.5282011,-44.19820023,4.41150713,13.23285675
2330,0.23578319,-0.189347818,11.55767727,-40.66465378,5.120094299,11.62752819
2331,0.362943023,-0.407879293,11.40704727,-34.31927109,5.379876137,10.28378296
2332,0.417779118,-0.602112353,11.23315239,-29.08267975,1.252599835,11.59437656
2333,0.58262682,-0.56285435,10.96123028,-21.63342857,-1.323142171,12.06020641
2334,0.551653981,-0.426822215,10.83297539,-13.7985096,1.407694697,10.02741432
2335,0.466027051,-0.486734331,10.76615715,-0.774400294,7.369615555,8.08898735
2336,0.981374264,-0.577718794,11.31302166,17.17684746,3.851340055,3.565079927
2337,1.350057483,-0.456110179,11.4479332,23.98431969,8.354850769,1.302261472
2338,0.774071097,-0.822205484,11.97650433,18.64877129,17.76745033,4.258767605
2339,0.410372794,-0.685873747,11.84920216,10.39922523,15.75338745,6.092674255
2340,0.347370982,0.215345353,11.01060581,6.495800018,9.696120262,0.877152085
2341,0.052893069,0.781790435,11.0249939,-0.400352091,5.362690449,-0.995578408
2342,0.107320592,0.827441514,11.3683424,-9.164790154,-1.688556194,2.337498903
2343,0.41498825,0.140858442,11.65923023,-19.66657829,-10.25073242,4.689148903
2344,0.732359052,-0.631142855,11.84041786,-24.65612602,-23.21900558,5.477432251
2345,0.977349043,-0.979387581,11.74270535,-19.06851768,-36.85024261,6.69281292
2346,0.993312001,-0.880043387,11.67278004,-9.045934677,-44.99135971,5.053673267
2347,0.909975588,-0.531453609,11.38089371,1.964843273,-57.04352188,3.047197104
2348,1.110217094,-0.472115487,10.86991024,18.24175262,-76.16996002,3.963606119
2349,1.664786577,-0.544054449,10.52215862,31.86358452,-88.31334686,3.000531197
2350,1.8973701,-0.589740038,10.87297249,33.40593719,-104.948204,3.890985012
2351,2.297142506,-1.00079453,10.46970272,40.48720932,-120.7964859,3.983099222
2352,3.258918047,-1.12976861,9.788843155,46.64610291,-126.4799118,2.932969809
2353,3.927885532,-0.865564406,9.369609833,50.98004532,-121.9475098,1.267579913
2354,4.221007347,-0.591334522,9.974145889,39.61484146,-120.5492783,-1.462452769
2355,4.233063698,0.077364817,9.734326363,37.74628448,-124.1855011,-2.680989027
2356,4.326505184,0.757578015,9.096547127,44.74225616,-117.0527954,1.198132277
2357,4.353625774,0.824770391,9.719620705,45.41469574,-117.1480484,6.416998386
2358,4.43021059,0.735898733,9.492827415,35.41235352,-118.8076553,9.61504364
2359,3.886081696,0.992807746,9.547699928,26.04242897,-115.615921,7.240967274
2360,3.817438364,1.150771379,9.133288383,22.5421505,-108.0206146,7.590912819
2361,3.775568008,1.259113431,8.481553078,24.39224052,-100.7215118,13.14818954
2362,3.841637373,1.294856787,7.961183548,18.85140991,-91.67710114,15.58546925
2363,3.825984955,1.128860712,7.377386093,9.180178642,-81.48335266,12.73383617
2364,3.607202053,0.633544207,7.268034458,2.259153128,-73.13618469,7.966654301
2365,3.416886091,0.362410665,8.036950111,-3.241667271,-64.48758698,1.285910845
2366,3.005429983,0.344143033,8.016899109,2.667854071,-55.10052109,-5.497057438
2367,2.894100428,0.502735436,8.343112946,9.907271385,-42.41857147,-9.275895119
2368,2.755358696,0.910354614,8.589927673,14.21550083,-34.04866028,-11.28327179
2369,2.798644304,1.510272145,8.131455421,15.62927437,-24.30725098,-12.60633183
2370,3.209222317,1.853065491,8.242566109,8.56184864,-15.48877048,-13.92201424
2371,3.502417326,2.006755352,8.308423042,-9.355983734,-6.981389046,-15.28227043
2372,3.029115915,2.121670723,8.413809776,-30.35141754,2.870201826,-11.09095478
2373,2.901569128,1.567981243,8.356454849,-32.18060303,5.436913013,-6.836582184
2374,3.634326696,0.455447763,8.817816734,-29.06661224,10.95243263,-7.831816196
2375,4.64009285,0.375930101,8.385168076,-27.53678894,23.04416275,-10.36593437
2376,5.48854208,0.862466514,8.323805809,-7.008738041,30.27976608,-12.70371819
2377,5.679582119,1.198200703,8.427586555,2.056049347,34.80823898,-7.506128788
2378,5.704489231,0.728800654,8.656990051,-11.76136589,48.5624733,-3.629300356
2379,5.089375019,0.030855812,8.602482796,-39.86607361,58.72685623,-1.655788183
2380,4.715633392,-0.170260638,7.311171532,-44.97679138,74.37797546,-5.248758316
2381,4.947276592,-0.362416267,6.468029976,-34.05855942,99.02433777,-10.33583164
2382,5.125660896,-0.586974859,6.641543388,-17.84879303,124.2043533,-15.2669754
2383,4.616973877,-0.349142879,6.944129944,8.487179756,133.6022644,-18.80280113
2384,4.219427109,0.095069401,7.935713768,19.1521225,134.5216217,-19.04602242
2385,4.725484848,0.776272476,8.934891701,11.21067524,131.1958008,-15.88298321
2386,5.261550903,0.799920022,9.376140594,9.24954319,128.9373016,-11.02932835
2387,6.086209774,0.36613211,9.494980812,16.63146973,135.5551147,-9.430848122
2388,6.159321308,-0.130036563,9.88719368,12.08877373,144.7566071,-11.44233131
2389,5.055289745,0.377833575,10.07084084,-4.610833168,142.1180573,-7.585204124
2390,3.760905981,1.25126183,9.890475273,-9.661040306,120.8681335,-0.845128417
2391,2.769140244,1.518343925,10.395895,-2.721538544,98.57020569,3.045838833
2392,3.522950172,0.925640702,11.77953339,-17.96034431,82.40768433,6.593853474
2393,5.68353653,0.522117198,12.84459019,-40.08292007,56.699543,6.445360661
2394,6.814098835,0.955589771,12.2408371,-47.45096207,38.62170029,0.052628394
2395,6.542029858,0.898711026,10.31243134,-34.07240677,40.31957626,-9.415758133
2396,6.335119247,0.200105801,8.611985207,-17.76105499,44.96176529,-14.41737843
2397,6.598822594,-0.336888194,7.568300247,3.989417076,51.32156372,-15.1806612
2398,6.073407173,-0.82165432,8.34940052,29.52762222,37.68656921,-14.92264175
2399,5.001940727,-0.593725204,9.623446465,20.54407692,51.43357468,-10.27249718
2400,2.836441755,0.502607763,7.507331848,0.191424876,53.7942276,-4.349208832
2401,0.386055171,1.415287971,3.055931807,20.78016281,40.53635788,3.839800596
2402,-2.056904554,2.51429534,3.445613861,24.19736099,65.59170532,10.00675583
2403,-6.167105198,2.202772617,10.31406975,8.323277473,74.12448883,12.69085598
2404,-7.885429382,0.593783021,8.615733147,-23.8696804,38.03624344,21.25145531
2405,-5.716431618,-0.118085377,8.75535965,-20.71425819,-16.65070343,15.52929783
2406,-2.602010012,-0.351952314,16.57213783,-56.96147537,-21.41132164,-0.474910408
2407,2.306952238,-3.879482508,11.9626112,-66.03238678,-3.199001551,-16.30082703
2408,3.833261967,-1.409915447,12.0478096,2.220707893,18.41195679,-12.38149357
