PacketCounter,Acc_X,Acc_Y,Acc_Z,Gyr_X,Gyr_Y,Gyr_Z
799,9.083107948,-0.531315386,4.598665237,15.93820858,61.18650818,8.004332542
800,9.079667091,0.091125943,4.690639496,12.35980415,61.06917953,9.624637604
801,9.253773689,-0.278164119,5.048539162,6.065092564,58.75243378,9.78283596
802,9.259350777,-0.923324168,5.42178297,1.85853827,58.7332077,9.287709236
803,9.258419991,-1.18358469,5.622052193,7.379290581,56.57326508,7.266682625
804,9.126358986,-0.888147712,5.869159222,15.27972794,50.62495804,6.689270496
805,9.044008255,-0.484855652,6.079968929,18.13677979,44.7641716,8.409379005
806,9.028985023,-0.655557513,6.023015022,15.22559834,38.30922699,9.713542938
807,9.167995453,-1.41915834,6.037004471,12.37155533,39.84813309,7.516484261
808,9.806541443,-1.377007604,5.939605236,17.28835297,43.40914154,2.786331177
809,9.704278946,-1.055905819,5.845517635,21.94037437,46.98189545,-1.419392467
810,9.4405756,-0.817851305,5.764477253,26.89456367,44.7745285,-4.268692493
811,9.2771492,-0.618484557,5.99519062,33.40268707,35.95889664,-8.355512619
812,9.552520752,-0.522308648,6.414114952,43.66797256,24.95644951,-12.43807983
813,10.09473801,-0.462526828,6.292843819,46.84646988,17.58724976,-11.78472233
814,10.40943336,-0.123485371,5.796339512,40.48963928,11.05696011,-10.01797962
815,10.7580862,0.090602189,5.210868835,31.87227631,4.228532791,-10.48143101
816,10.949296,0.054925777,4.488820553,35.38203049,2.594578981,-11.28419685
817,11.63658047,0.531150639,4.167921066,37.18312454,9.20152092,-9.371442795
818,12.21919537,1.415566683,4.095113277,16.69208527,18.66005135,-4.241856575
819,12.04953575,1.598029137,3.696739435,2.818051338,26.79678917,0.515911579
820,11.65322208,0.343524426,3.974118233,-5.395835876,42.14241028,0.865836382
821,12.01711369,-0.263038516,3.981819391,-13.31466103,51.15779114,1.453003287
822,12.37536144,0.198082268,4.278167725,-13.59425068,52.67994308,4.524012566
823,12.54292965,0.394933403,4.14281702,-13.45569038,56.1519928,6.002363205
824,12.53050995,0.066132344,3.574528456,-8.710116386,58.44488525,5.374948978
825,12.50564671,-0.23795858,3.002417326,-3.243161917,61.33916855,2.748401403
826,12.4650135,0.064239703,2.630296946,3.476127386,74.22621155,1.548349738
827,12.62740231,0.72561419,2.471908092,4.480979919,71.9493866,6.599662781
828,12.66281128,0.50019449,2.697189808,4.911723614,69.00830078,10.77211189
829,12.25653648,0.666119158,2.306738615,-1.340602398,64.94660187,14.86689854
830,12.25288296,1.223994374,2.421095133,-4.861363888,65.69447327,17.48575783
831,14.08121777,0.379688799,2.550490141,-21.03424263,84.54096985,16.28732872
832,13.0120182,-0.040720545,3.619171858,-31.7403717,103.9494171,17.44266891
833,10.21702957,0.03474297,3.32851696,-35.80897141,61.86393356,19.09181213
834,12.3520422,0.259785563,4.058141232,-47.61762619,38.22173309,12.46878433
835,10.14109516,0.720979333,4.585134983,-20.89064598,23.60796356,10.80491924
836,6.50642252,0.43607682,5.054638863,4.179156303,69.40388489,23.6235981
837,1.464287996,-0.408210635,6.359464645,-3.886172295,89.38005829,32.38819504
838,0.185112596,-0.424656659,7.608981609,-9.601462364,95.93171692,26.45335007
839,3.948805809,-2.845836163,10.65056038,-23.5784111,88.44727325,30.7493248
840,5.696045399,-2.725269556,11.51329613,-47.34873581,105.2293549,32.48609543
841,4.175922871,-1.852884412,12.42873192,-49.88426208,109.2781143,23.27507401
842,4.263734818,-1.595298409,12.56688595,-37.59337997,104.2680969,23.17875099
843,3.414230585,-2.053578854,13.48455811,-42.96059036,121.4769897,18.41535187
844,2.179871082,-1.27575922,11.49610996,-39.49909592,110.5643082,16.61075401
845,0.662490547,-0.153247803,6.560536385,-41.44478226,57.12822342,20.0930748
846,0.850220084,-0.518636465,5.428689003,-10.57756138,35.84251785,21.77487183
847,1.301633954,-2.037599564,8.035593987,-36.7225647,36.54660797,16.85450363
848,0.959410071,-3.156549215,8.680685043,-54.49195862,38.90569305,12.78883934
849,1.294038773,-3.282206774,8.900176048,-33.55914307,40.86798859,11.80515003
850,1.876645923,-2.458992958,9.582576752,-21.36855316,30.27783966,7.125482082
851,2.13344574,-1.946981072,9.847732544,-12.38206387,18.56787109,12.40863132
852,1.104902744,-2.211946011,10.0081377,-1.951971769,12.70258808,13.85030842
853,1.840107203,-2.800936222,10.22810268,0.881192684,7.743210316,11.81743717
854,1.551809907,-2.828522444,10.02701569,1.15222013,5.396708965,12.03355312
855,2.173714876,-2.759814978,10.23259068,-5.231333733,6.946059704,12.07943726
856,2.121941566,-2.034235001,9.82511425,-6.237484455,4.38836813,12.07609081
857,2.198172808,-2.080843925,9.924165726,-6.227109909,0.237417057,11.033535
858,2.178514719,-2.671377182,9.809251785,-4.838126659,-1.140367746,13.17625046
859,2.3234725,-2.970861435,9.448266983,1.620279789,4.78204155,15.2148819
860,2.396250248,-2.875562668,9.554964066,7.158108711,7.357772827,13.31702042
861,2.058565855,-2.589894056,9.648286819,11.37617016,10.24766064,11.25061703
862,2.123132467,-2.454594374,9.759917259,15.79331303,9.384033203,9.856524467
863,1.799476743,-2.415216684,9.812021255,19.48838043,10.78438759,6.949198723
864,1.902476907,-2.481017351,9.890538216,20.00143433,8.037438393,5.471503735
865,1.898941159,-2.189760685,9.922506332,20.75758362,6.698788166,4.010513306
866,2.00690937,-1.892784595,10.0461359,19.77993774,5.775915623,1.716360688
867,2.316922665,-1.962781787,10.00627613,20.18236923,5.61009264,1.962454438
868,2.114113331,-1.899014115,10.02847862,23.89837837,6.388960838,1.402106285
869,1.908748865,-1.537836075,9.981578827,28.48939896,6.102807999,2.402094126
870,2.105315924,-1.622681737,10.00828075,28.38412285,3.330794096,1.596527457
871,2.325847149,-1.490498662,9.894976616,27.55053902,4.709483624,2.987063408
872,2.264221191,-1.712323189,10.08730888,24.88915443,10.55306149,4.447003365
873,2.199120522,-1.952507138,10.10463333,21.15215492,10.67816639,3.748880386
874,1.836248159,-1.533081532,9.86894989,18.32088852,13.96298122,3.947808027
875,2.054518938,-1.255450964,9.940731049,17.23067284,15.2198267,5.0897789
876,2.213109493,-1.467064619,10.07954788,13.07984638,21.48659325,5.347328663
877,1.995157242,-1.210569382,10.38466263,4.689622879,28.96515846,5.832042694
878,1.525846362,-0.878986955,9.865994453,-4.278949261,30.08013725,5.41437006
879,1.505962968,-1.323381305,8.956382751,-4.035412312,33.48024368,6.979648113
880,1.474034548,-1.530686736,9.172327995,0.321152776,36.0500412,6.908258915
881,1.360353947,-0.993412495,9.250464439,1.467430234,40.27868652,6.836446285
882,0.678998113,-0.935682535,9.864533424,-0.395802706,48.5774765,5.902316093
883,0.137129039,-0.64981705,8.98239994,-7.631880283,50.16629028,6.6737957
884,-0.053954635,-1.132233739,8.471808434,3.999182463,39.10633469,6.981413841
885,-0.274535269,-1.689249158,8.705628395,-7.024975777,22.45174789,4.31393671
886,-0.598617911,-1.408669233,8.089233398,-12.62132072,5.970190525,6.74528265
887,-0.647833645,-0.763473332,8.714250565,-20.65021896,-1.221407413,5.336663723
888,-0.018905269,-0.468506038,9.090925217,-32.34099197,-12.55222511,5.192158699
889,0.461434156,-0.735241652,9.326030731,-39.43885422,-23.98826408,6.70567894
890,0.21023345,-1.136081576,9.686216354,-46.93609619,-30.5676651,4.348501682
891,0.099790454,-1.832853675,9.282956123,-48.79615402,-40.30915833,1.54207921
892,0.42917189,-2.307575464,9.471832275,-52.01567841,-52.3765564,-1.448784471
893,0.814269602,-2.242881298,9.616727829,-52.64667892,-61.18543625,-4.140893459
894,0.759447038,-2.482155085,9.752710342,-52.0136261,-72.94104004,-4.494432926
895,0.990303278,-2.899989128,9.931492805,-48.11647797,-84.26957703,-8.551104546
896,1.306219339,-3.752264738,9.620102882,-45.17888641,-99.35452271,-11.37239265
897,1.946733713,-5.043649197,10.05298996,-38.31910324,-115.6789017,-13.03308201
898,2.901487589,-5.606626987,10.3883028,-20.71092415,-127.3134537,-16.92957115
899,4.408531189,-5.24913311,10.89066219,3.356554747,-134.5490112,-24.7625351
900,4.492279053,-4.166275024,11.29567814,19.17984009,-133.4300079,-23.41125488
901,4.644824505,-3.578484297,11.6894846,23.30731773,-137.339325,-21.36372185
902,5.312895775,-3.605998993,11.85108948,25.21391487,-147.0365448,-21.25000191
903,5.738233566,-3.333746433,11.87784004,31.79412079,-165.3264771,-16.56809998
904,6.872561455,-3.161484241,11.75254631,22.97942734,-158.8959961,-15.48214054
905,8.053761482,-3.463369608,12.01208973,16.14926147,-138.2436371,-18.9029026
906,8.549520493,-4.302823067,12.49207497,22.77116776,-124.6022568,-19.90335846
907,9.263634682,-3.937182665,12.29169464,17.37886429,-107.6216125,-14.97974014
908,9.782432556,-3.008989334,11.70782757,-4.65810442,-83.27239227,-6.34414053
909,9.582932472,-2.783819437,10.19786644,-15.8145895,-51.37581253,-0.671731949
910,9.582638741,-3.300934315,9.153783798,-17.77023506,-23.01374817,4.555354118
911,10.10116386,-2.925901175,8.2202425,-3.533786535,-9.470737457,11.32573223
912,10.8702774,-2.749625683,7.45677948,4.056341648,23.10518456,19.52276421
913,11.69408798,-3.412950277,7.263729095,-8.042963982,61.01364899,22.81944084
914,11.38618565,-3.53876853,6.770092487,-7.685587406,99.77812195,23.24586296
915,10.28045177,-3.174094677,6.094687939,13.07474232,136.836731,20.32658768
916,9.720171928,-3.080276012,5.251497746,25.69102669,171.1859283,16.62735367
917,9.241010666,-2.512997389,3.833148241,31.81338501,184.6506348,17.43377495
918,7.789920807,-2.427445173,3.29596734,38.97048187,200.0743408,21.96247292
919,6.351812363,-2.641367912,2.664171457,33.83323669,209.7245941,25.31411934
920,4.082158089,-2.233545542,2.640571356,35.99410248,221.6186523,27.91662788
921,1.352699637,-0.698564112,3.222554445,44.79981995,239.4913177,26.02150536
922,-0.919632912,0.229536697,4.572595596,41.53102875,266.783905,28.2537899
923,-1.650878906,0.350501597,5.678001404,29.49531937,263.2059937,28.48114777
924,-1.653490782,-0.135284215,6.282457352,9.225866318,242.7454224,32.16494751
925,-2.183008671,-0.285368413,6.048862934,-15.57962418,209.8567657,38.48581696
926,-3.484699965,-0.553523481,5.672109127,-17.03062439,189.9454193,45.73539352
927,-3.846548557,-1.593326211,7.752286434,-23.42238235,168.1062927,48.20400238
928,-3.903305531,-2.81635499,9.242395401,-25.89443779,159.3103027,43.16565323
929,-4.186800003,-2.819745779,8.395432472,-3.25321722,130.7628937,37.55080414
930,-4.146354198,-1.911305428,6.865039349,34.11655807,95.25304413,26.16486549
931,-4.431754589,-0.980494738,8.130155563,32.21300125,73.70915222,19.38765526
932,-3.962556362,-0.972820759,8.383769035,21.8306675,62.1552887,19.29732323
933,-3.686486244,-0.671094358,9.293494225,10.73198414,51.56269836,17.64746475
934,-3.719820499,-0.631481588,10.23890305,6.604523182,41.77972031,12.79776764
935,-4.043308258,-0.613919675,9.89543438,10.73013973,26.30410576,7.371946335
936,-3.917122126,-1.089087129,9.762233734,6.123220444,14.1797657,1.244163513
937,-3.941362619,-0.75897795,9.423627853,-0.822558284,4.554476261,0.995629728
938,-3.208619356,-1.362426519,9.379954338,-9.775034904,-8.600384712,1.959462404
939,-2.727568865,-2.801177025,9.695789337,-7.882103443,-20.56696701,1.84852922
940,-3.231214762,-4.547354698,9.941298485,0.526374578,-28.63367462,3.412178993
941,-3.485840797,-4.519892216,10.29341793,17.66026306,-34.71150208,-0.016814828
942,-3.068062305,-2.406229734,10.54306507,32.64748001,-48.0026474,-5.609959602
943,-2.113788843,-2.074877024,10.61537361,37.30624008,-58.64669418,-11.85526848
944,-1.093757272,-1.652730584,11.15538311,35.44363403,-59.26335907,-15.82069206
945,-1.454141021,-0.971470594,11.34300232,28.19880867,-64.98161316,-15.32682705
946,-1.586429358,-0.839022815,11.74133396,26.68194008,-78.3775177,-15.45757866
947,-0.352487832,-0.140111342,11.14591694,23.42822456,-84.2925415,-12.89214325
948,1.016261816,-1.786011696,10.54788113,10.29184341,-81.61250305,-11.96382332
949,0.65397507,-2.647938251,9.915255547,12.00060177,-83.98074341,-11.24875355
950,0.817253232,0.081680246,9.56373024,16.75341606,-78.23545074,-16.00214577
951,1.679644823,0.080825374,9.930488586,7.304454327,-69.22527313,-20.31874657
952,1.580626011,-1.537585735,11.08754826,7.359778404,-69.86183929,-18.34819603
953,1.614952683,-1.446228027,11.46382999,15.80919838,-82.94246674,-9.78783989
954,0.848416626,-0.797160745,11.25947571,12.2608223,-93.0105896,-9.469560623
955,1.501930952,-1.460893869,10.93981266,-8.408547401,-90.5019989,-13.96317196
956,1.828350902,-1.080481172,10.50035191,-9.430352211,-89.54162598,-19.04960442
957,1.405171394,-0.656460345,9.774512291,-2.293389082,-93.29251862,-18.13981819
958,1.412719131,-0.470349848,9.650272369,-8.834568024,-89.94882965,-14.18109703
959,0.875365138,-1.203532934,9.895933151,-4.770327091,-96.87236023,-10.31580353
960,1.478234172,-1.581281424,9.985843658,-4.2204566,-97.83615112,-8.934737206
961,1.462919593,-1.967677593,10.45487499,-11.63563538,-88.29229736,-10.64698315
962,1.908710241,-1.800346136,10.4418354,-16.17542458,-79.78901672,-10.84305477
963,2.565827131,-1.201917052,10.95484924,-11.32126427,-63.71897125,-7.830150127
964,1.946824908,-1.645903587,11.23172474,-15.76570892,-55.74635696,-4.726264477
965,1.73062408,-1.663641453,10.91904449,-13.41836262,-51.84485245,-5.54612875
966,2.792943716,-1.323475838,10.27487183,-6.805501938,-54.07915115,-9.495542526
967,2.381593943,-1.818813324,9.761583328,-6.211766243,-48.32049179,-6.883478165
968,2.421920061,-2.413339615,9.819334984,-10.51825809,-39.73688507,-3.294920921
969,2.282380819,-2.423914671,10.00017452,-9.501449585,-33.64279938,-4.745585918
970,2.518039703,-1.912051916,10.31529808,-4.59348774,-31.73750305,-1.174167156
971,2.884260654,-1.257669568,10.37868023,-0.859750867,-31.07387733,-1.389551282
972,3.085896492,-1.738440633,10.49724674,-10.1371479,-21.31703568,-3.304857731
973,2.677596331,-2.589242697,10.44151783,-24.81176376,-18.10861778,-2.660867453
974,2.736225367,-2.472654343,10.03245449,-18.29118156,-23.73851967,1.116192102
975,2.9778018,-1.015641093,10.08338547,-6.04383707,-25.50591278,6.430775642
976,3.171495438,-1.071963191,10.31426239,-11.03294945,-24.89336395,5.520806313
977,3.339639425,-2.262421846,9.801037788,-17.43279839,-23.57317924,3.741149426
978,3.166074753,-3.038009167,9.71111393,-13.73480129,-20.52549553,-0.62182647
979,2.992241383,-2.581179142,9.945063591,-10.72780323,-20.22705841,0.344785988
980,2.914999247,-1.510722399,10.27174187,-7.928463936,-16.29351807,-0.093134269
981,3.212297201,-1.396103263,9.913002014,-8.754480362,-13.98377895,-4.037269592
982,3.300594091,-2.497101307,9.618350983,-8.311759949,-21.54924965,-5.955898762
983,3.125591755,-3.114503145,9.676279068,-3.297101498,-28.66206551,-9.017549515
984,3.524438858,-2.326526642,9.819336891,8.101169586,-27.85900497,-9.012951851
985,3.751726866,-1.676739573,10.1921854,11.28968525,-24.356493,-5.47322464
986,3.949376822,-1.658024907,10.16596127,5.510967731,-22.82158279,-4.765963554
987,4.079059124,-2.660303354,9.996634483,-4.645709515,-19.64793587,-5.561364651
988,3.782350302,-2.755699873,9.7336092,-3.250152588,-16.45396233,-6.805685997
989,3.471147299,-2.260001659,10.02350426,2.508829355,-10.96632099,-6.924148083
990,3.315114021,-1.459529161,9.958023071,-1.948122144,-10.61164761,-9.182240486
991,3.570706367,-1.362987757,9.294001579,-10.8677063,-11.60266399,-9.094804764
992,4.032758236,-2.220706224,8.941766739,-9.517279625,-9.681406021,-9.68235302
993,4.098736763,-2.67294693,9.236373901,0.901817441,-12.43228531,-8.720861435
994,3.687240601,-1.979579568,9.777799606,5.182570457,-16.97409058,-6.327837944
995,3.757490635,-1.207304835,9.951084137,1.162074924,-16.05696869,-6.796290874
996,3.831058264,-1.321461558,9.316579819,-0.128639981,-20.84674644,-3.878665209
997,3.542313337,-1.938840985,9.196198463,-1.532295108,-22.35376549,0.062539913
998,3.676102638,-2.04143548,9.018032074,-5.672595501,-21.93729019,1.748959899
999,4.075251579,-1.891831756,9.188096046,-8.649144173,-26.23325729,2.549379587
1000,4.224251747,-1.958171129,9.245533943,-8.368751526,-27.9951458,2.417922974
1001,4.159680367,-2.131516457,9.261711121,-10.66386032,-26.69047928,0.577478468
1002,4.152796268,-2.261527538,9.269450188,-14.05731964,-25.09163666,0.072676241
1003,4.413723946,-2.49213624,9.550931931,-11.51383972,-24.10729027,0.144686505
1004,4.464769363,-2.686241627,9.817855835,-5.186994553,-19.92044067,-0.237321198
1005,4.175805092,-2.432964087,9.408212662,-7.580583096,-13.2603054,-2.745427132
1006,4.262172222,-2.294978619,9.192728996,-2.418923378,-16.67062378,-3.534088373
1007,4.204560757,-2.377194405,9.432914734,1.726042151,-18.55134583,-5.291712284
1008,4.078721046,-2.44529438,9.637672424,0.093153477,-16.24401855,-6.205123901
1009,4.267944336,-2.290995359,9.439822197,-0.97631228,-15.40417862,-6.595667362
1010,4.551394463,-2.25070405,9.350867271,3.336235523,-12.01874828,-6.095384598
1011,4.607526302,-2.160570383,9.410257339,2.919330597,-9.334015846,-7.621691227
1012,4.148588657,-2.150712252,9.446383476,3.011395693,-10.59964275,-6.733530998
1013,3.645783424,-2.298335552,9.622911453,1.022465706,-8.09517765,-6.139032841
1014,3.50867486,-2.241111994,9.896331787,-4.025165081,-5.123245716,-3.740454197
1015,3.754198074,-1.865246415,9.67684269,-14.97024822,-3.750631571,-3.206668377
1016,4.002290249,-2.181655884,9.700547218,-17.3829155,-1.024656296,-5.15917778
1017,3.58868289,-2.727669001,9.912250519,-11.32940769,5.180773735,-5.053740978
1018,3.438239098,-3.100802183,10.1548357,-10.99750328,7.00909853,-2.924721956
1019,3.392908573,-2.467422247,10.02717972,-9.015517235,12.34173393,-2.071243048
1020,3.37406683,-1.849750042,10.14764214,-13.65054417,21.6380825,-2.094976425
1021,3.119947672,-2.251458645,9.949725151,-20.10171127,20.7057209,-3.145299911
1022,2.463229895,-3.040706396,9.903705597,-18.31202698,16.91956902,-2.990090847
1023,2.406487703,-2.964539766,9.086414337,-10.73100471,10.73363686,-1.724753976
1024,2.627946138,-2.561146736,8.800882339,-0.800275505,11.98011398,-1.552431226
1025,2.85509038,-2.509226561,8.81089592,2.420049429,13.34589577,-0.171438724
1026,2.953843594,-2.29115057,8.806363106,1.231607437,17.68055153,-1.02319026
1027,2.891120911,-2.343466282,9.10801506,-0.800359249,16.67394257,-1.149447799
1028,3.095455408,-2.236288309,9.503123283,-5.72304821,16.1412487,2.672105074
1029,2.861425161,-2.22957778,9.010937691,9.671186447,5.944844246,2.960387468
1030,3.020450592,-2.222721338,8.044558525,24.02829933,-3.687454939,3.207260609
1031,3.280059338,-2.416831017,7.839790344,24.49822617,-2.291189194,3.844519615
1032,3.57786274,-2.056267023,8.032299042,17.33656883,2.698729992,3.611285925
1033,3.684437037,-1.370616794,8.440965652,6.809131622,6.803458214,4.902355194
1034,3.860750675,-1.430176497,8.310715675,-0.821130514,4.558325768,7.665287495
1035,3.81134057,-2.262802124,8.326002121,-1.914562464,3.10171771,5.241018772
1036,3.720613956,-2.365673304,8.061784744,5.035488605,2.964817286,3.062811375
1037,3.963549614,-2.663060427,8.360312462,-2.898423195,6.771595478,1.951464057
1038,4.191278934,-2.527715206,8.283622742,3.97373414,4.365698338,2.212719917
1039,4.115842342,-1.770432353,8.039692879,12.41864395,0.637474775,3.057543278
1040,4.056152344,-1.686143875,7.569800377,13.3744812,-3.524425268,3.477496624
1041,3.986369371,-2.306749105,7.9741745,9.74250412,-0.130535156,3.331195116
1042,4.255883694,-2.219823122,8.096806526,5.428413391,5.632764339,3.985061169
1043,4.892852783,-1.986674428,8.651721954,4.028367996,11.61371517,5.860279083
1044,5.083193302,-2.152883291,8.986353874,4.07415247,14.59373379,7.20351553
1045,5.034707069,-2.377614021,9.233066559,-0.124708354,15.40310097,6.15822649
1046,4.771815777,-2.15760231,8.895228386,4.750255585,11.71952629,4.913152695
1047,4.700688839,-1.516596317,9.459383011,3.78539753,8.247195244,2.943648815
1048,5.643221855,-1.242081761,9.73072052,-4.413721085,4.019727707,1.428042531
1049,6.937607288,-0.753947198,8.712768555,-12.20631886,-7.55704689,-5.542926311
1050,9.095995903,-1.784115076,9.024343491,-3.770563364,-8.284740448,-9.837409019
1051,10.38907814,-3.46398735,9.859641075,-13.6622982,8.600488663,-2.147703409
1052,10.49699783,-2.56244874,8.718237877,-25.82500267,24.90895462,0.888437986
1053,10.8480587,-0.821850896,8.06340313,-13.12470436,34.82844543,3.535088778
1054,11.68874264,-0.816465795,8.70706749,-11.05065441,47.88771057,2.529755831
1055,12.13471985,-1.506066203,7.775025845,1.989087105,50.00053024,5.754789352
1056,11.57201672,-1.574257851,6.655975342,32.25963974,75.64095306,12.70730972
1057,8.625577927,-2.606191635,4.960342884,23.330513,72.89691925,27.88852692
1058,4.845611095,-3.227405787,6.615227699,-20.95808983,95.39063263,20.74538803
1059,0.865040183,-1.770191669,5.461716175,10.79688358,83.25805664,21.24925232
1060,0.011414766,0.260548443,9.969579697,10.60042858,98.50861359,16.57111549
1061,2.069355011,-2.133862734,9.382494926,-11.07594204,55.51922226,10.39264488
1062,3.85228467,-3.079025745,10.40040493,-13.83217716,34.91649628,14.39354134
1063,3.6439538,-0.201422676,8.778536797,-4.820621014,8.585504532,11.64165401
1064,3.49181366,1.138858318,9.034899712,-18.45739937,-1.88260746,13.73979282
1065,2.625821114,-1.337161899,11.60847282,-41.58018875,1.11123991,11.43540192
1066,1.624367356,-3.701149702,12.18796539,-35.67206192,-1.572767735,6.105589867
1067,1.362943888,-3.945846796,11.00944805,-26.52389336,-8.720507622,0.074193791
1068,0.726972401,-3.69844389,9.664761543,-10.52805614,-24.48327446,-1.647316933
1069,0.415096104,-3.485998154,9.650067329,-3.298259258,-43.51749039,-7.036113262
1070,1.040773511,-2.536613941,9.026174545,5.623999119,-52.66012955,-13.02170753
1071,2.369576216,-2.83247757,9.265632629,7.093429565,-62.39681244,-9.773446083
1072,2.337347507,-3.51549983,9.441831589,11.18580341,-58.75675201,-8.175216675
1073,1.426523089,-3.711561918,9.159531593,22.34864998,-58.40081024,-6.280218124
1074,2.324790239,-3.519913197,9.05463028,21.22769165,-59.09679794,-7.089125156
1075,2.758107901,-2.91453433,9.130129814,22.11995697,-58.68945313,-2.955535173
1076,2.372559071,-2.813038588,9.257730484,26.55242729,-63.29244614,-0.090222225
1077,2.584577322,-2.659266949,9.954343796,32.35237885,-69.89073181,-0.556537151
1078,4.164579391,-2.047452927,10.37043762,23.07660294,-64.50286102,2.147058487
1079,5.187033176,-2.057371378,9.893933296,2.1354177,-54.90340805,4.892334461
1080,5.496937752,-1.786206484,8.271870613,-4.823890686,-28.3249073,6.65985918
1081,5.840026379,-1.402468562,7.80746603,0.018377114,5.617711067,5.694152355
1082,6.235336304,-0.159125149,8.349551201,-12.89164543,48.56759262,-0.063231908
1083,4.954414845,0.474749744,6.892327309,-28.65754509,89.78709412,3.636131048
1084,3.139266968,-1.818719029,6.410976887,-49.13666153,67.81172943,15.66041851
1085,2.103214264,-3.072980642,7.912910461,-56.69319916,63.76345062,17.03479004
1086,2.60595274,-2.554668188,8.934394836,-50.67663193,54.46058273,12.21082211
1087,2.112454414,-1.71899879,8.942807198,-38.89322281,35.53802109,7.224640369
1088,2.313160419,-2.045996666,7.203590393,0.161661014,9.720503807,3.138792515
1089,2.182731867,-2.905645132,10.61279678,6.767605305,-21.47420692,-5.421200275
1090,1.526702046,-2.977767467,8.930550575,26.8899231,-70.59532928,-22.07605934
1091,2.840304375,-3.568165779,7.33993721,31.90522385,-122.8909378,-19.70988846
1092,4.186837673,-2.423545837,7.764998436,42.57686615,-154.2594452,-24.08110428
1093,5.678049088,-1.894482017,8.510365486,37.9176445,-173.6597595,-37.80819702
1094,5.861579418,-2.647203922,9.3005476,57.38990021,-192.0547485,-43.10258484
1095,5.756869316,-2.76584816,9.028394699,69.91196442,-212.5019836,-44.79980469
1096,7.386558533,-2.9713552,8.510094643,71.78984833,-230.5769958,-47.13791275
1097,8.67787075,-1.699024081,7.869260788,70.33302307,-228.6898956,-46.4156456
1098,8.278950691,-1.168215752,8.382961273,62.62877655,-231.7851563,-50.1658287
1099,7.080986977,-0.160229728,8.756519318,46.17333984,-234.9872284,-48.26348495
1100,7.083874702,-0.100313157,9.182752609,30.69998932,-236.7473297,-43.62099838
1101,6.871636391,-1.086904645,9.035135269,24.28347778,-221.3249359,-39.35698318
1102,6.377240181,-1.850842953,8.694300652,25.27913857,-202.2157288,-35.80921936
1103,6.434558868,-2.524702549,7.755801201,31.62913132,-175.1219482,-35.80104446
1104,6.898926258,-1.611332178,7.049341202,38.481987,-146.1305389,-35.46132278
1105,7.067657948,-0.407509416,6.948078156,30.31139946,-111.8897629,-33.42655563
1106,7.682682514,-0.028997969,6.442878246,9.945552826,-74.7516861,-27.52415848
1107,8.343706131,0.667570531,5.91446209,2.193052769,-51.8398056,-18.47755432
1108,8.515192032,0.045081437,6.426597595,-1.09810853,-20.8953743,-14.12858677
1109,9.101002693,-1.584282637,7.395493031,-19.29766273,13.80651379,-11.19148159
1110,9.54891777,-2.112040997,7.82984066,-20.46962738,33.36884689,-4.003965378
1111,10.06025791,-2.97517252,7.073316097,-4.638213634,60.78052139,3.132660151
1112,10.3094635,-3.5511446,7.012827396,-18.11392021,91.75119019,13.30161095
1113,11.18345165,-2.181321383,4.957149029,-51.45887375,110.1270218,25.3225708
1114,8.933876991,0.477060974,3.161385059,-66.89576721,187.2490387,34.5530014
1115,5.163468361,3.217915535,-1.036073685,-59.89154434,199.7356415,42.22580338
1116,3.628974199,1.492515802,1.638632298,-27.10739708,226.8993378,47.50080872
1117,4.083142281,-0.309625447,4.202563286,-38.037323,239.2492828,55.5001297
1118,4.829216957,-1.220769048,5.616747379,-20.63141251,248.0701447,63.32157898
1119,4.337531567,-0.968743801,7.062829971,-6.047777176,243.9620361,69.87076569
1120,3.697897673,0.434087068,6.911464214,-10.4842205,236.5857086,65.1618576
1121,4.08909893,-0.980988383,7.253941059,-22.60847282,217.2969513,49.90465927
1122,5.959949017,-1.288419247,7.502821445,-2.271284342,191.6885681,42.53407669
1123,7.880540371,-0.729841173,8.349747658,30.12513733,174.0858765,40.27139664
1124,8.431807518,0.99787724,9.313382149,33.58134842,161.6490021,35.0091095
1125,9.126389503,0.722407103,10.68968964,-10.36520195,164.1366882,20.9523201
1126,10.38617897,-1.546104074,10.5002203,-19.85820389,159.5305939,18.22093582
1127,10.49806404,-2.731816053,7.857275486,-4.55884409,102.5849915,33.14546204
1128,8.869652748,-1.981294036,7.983215332,-14.09437943,84.25650787,31.24002457
1129,9.282337189,-2.419326067,11.21377659,-34.15575027,87.36943817,15.71184826
1130,11.36194038,-1.598769426,10.57069778,-19.04600334,85.17843628,15.85546303
1131,9.836782455,0.467902005,8.440960884,7.60418272,50.49879456,19.48848534
1132,6.791012764,0.076776981,7.797579288,0.371589899,20.02146912,17.02308464
1133,7.097962379,-1.297210455,6.203811646,-33.79605103,3.657379866,21.65584564
1134,5.717974186,-2.010210991,4.491747379,-17.04696846,29.23993492,33.394104
1135,2.667653084,-3.543028355,10.24863148,-24.63069725,90.88793182,48.08248901
1136,0.593822837,-3.531901121,13.02783394,-32.61386871,121.0442886,46.86394119
1137,1.908774018,-3.673942804,13.01512527,-11.59697056,146.8752594,32.13188934
1138,2.121716261,-5.476829052,11.21856785,-0.573493898,147.8213654,17.42810249
1139,0.727001429,-2.498164892,6.977071762,70.45864868,125.6578064,17.3198719
1140,-0.754800737,0.085839719,6.679982185,82.01700592,92.78962708,15.5002594
1141,-3.032131195,-0.089342333,8.783772469,36.95306396,67.31957245,12.74562645
1142,-1.872729182,-1.059285641,8.5519104,9.058900833,60.95052719,8.753131866
1143,-1.141214371,-2.039867163,8.265048027,-21.40738106,61.42267609,11.32800674
1144,-2.127220631,-3.137892485,9.098234177,-29.72231674,59.94878387,17.16572952
1145,-3.37036252,-2.678803921,8.647433281,-15.54161263,48.11112595,14.84152794
1146,-3.118284464,-1.462975502,7.716062546,9.332598686,27.77407074,5.736091137
1147,-1.831701517,-1.932220578,7.563300133,22.70583916,4.425178051,0.59168005
1148,-2.122514486,-2.168525457,8.323617935,24.65142822,-10.58230495,-0.179500669
1149,-2.323677778,-1.849734545,9.101089478,15.95507813,-17.24085617,0.988639235
1150,-2.440103531,-1.434396982,9.51307869,1.795741677,-23.50183678,-0.515238822
1151,-1.593607903,-1.87781167,9.438463211,-7.545219421,-34.01176834,0.461888611
1152,-1.521901727,-1.639256001,9.543190956,-13.89050293,-40.41013718,1.074165106
1153,-1.830057144,-1.929540753,10.4041748,-15.4572525,-39.14200974,-1.937337518
1154,-1.258554459,-1.704899192,10.97784138,-12.24870205,-43.29488754,-4.816739082
1155,-1.235685945,-2.165095806,10.85390186,-10.27504826,-53.52917862,-7.721703053
1156,-0.575379431,-2.005007744,10.72837162,-9.83081913,-60.62115479,-10.70483971
1157,-0.583545804,-2.198047876,10.37181854,-3.988429308,-60.11504364,-8.955654144
1158,-0.920304775,-1.654302001,10.65918541,5.281092167,-69.77456665,-8.153688431
1159,-0.684533298,-1.886556745,11.04117012,5.447474003,-86.5922699,-9.394528389
1160,-0.164371401,-2.800267696,11.41123772,3.51513505,-94.56478882,-11.85028076
1161,0.379030883,-3.044008255,11.81467628,4.026422501,-90.2035141,-15.74167919
1162,0.572788477,-2.534102678,11.40431404,5.440873623,-96.60522461,-17.14368248
1163,0.9121297,-1.96145153,11.20799065,8.634882927,-106.4877014,-16.66937447
1164,1.368728638,-2.102811575,10.87880898,4.335581779,-108.8234406,-14.62175369
1165,2.532604933,-2.397953033,10.51804161,2.875069857,-99.46012878,-12.4838028
1166,3.22620821,-2.742879629,10.94345665,0.801641464,-86.4147644,-12.82649422
1167,3.336504459,-2.718939543,10.76828575,-5.555552006,-70.28888702,-11.03943253
1168,3.295457125,-1.965433359,10.38358593,-3.562956095,-58.72461319,-8.053403854
1169,3.470239878,-1.667844176,10.3861618,-0.692528605,-49.62686157,-4.44820261
1170,3.492239475,-1.994446516,10.96714115,-3.834475994,-47.67438126,0.995458364
1171,3.441995859,-2.345362902,11.02968884,-10.25172043,-42.67801666,3.118118048
1172,3.824769974,-2.524880409,10.98933697,-14.56802559,-32.90475082,0.116128504
1173,3.88438201,-2.243723154,10.78773975,-19.11217499,-24.0156517,-0.33498317
1174,3.919030905,-1.533964753,10.49638844,-24.3073597,-18.75790215,0.305611789
1175,4.606845856,-1.505621195,10.2493248,-32.39030075,-13.22913933,4.042534351
1176,4.344012737,-2.570596457,9.532658577,-36.465065,3.82788825,8.384435654
1177,3.304674149,-3.512807846,9.127429962,-28.70696831,25.42130661,9.769312859
1178,3.326437712,-2.889390469,9.344742775,-23.0085659,39.377491,7.715358734
1179,3.843430042,-1.865147948,9.279244423,-21.68131638,39.32997131,8.302084923
1180,3.909929991,-2.998867035,9.436779976,-15.73159409,49.53887558,13.51724625
1181,3.943303108,-2.009889841,9.981759071,-8.911150932,53.00142288,19.06733513
1182,3.878593922,-1.576407909,10.07788372,-16.58991432,60.24520111,15.57744694
1183,3.016716003,-2.057424307,9.067451477,-25.61994553,47.91397095,18.05643463
1184,2.651515484,-3.111493349,8.521774292,-16.89984512,44.34822845,17.57850456
1185,2.960617304,-3.658165216,9.316464424,3.675375223,35.78811264,6.728141308
1186,2.168734312,-4.224358559,9.666711807,16.38140106,26.51812363,5.137310982
1187,1.269655824,-4.074328423,11.61452293,42.38327026,1.212339878,-1.422704697
1188,1.625474811,-2.036539555,13.86030006,33.82581329,-30.06379509,-26.62013054
1189,1.699289203,-2.425585985,15.4666338,15.92575264,-83.66561127,-32.79645538
1190,-0.005543426,-1.071761608,10.80333614,18.60650826,-132.3992615,-34.22100449
1191,1.38384831,-2.069963217,6.846353054,38.51604462,-166.7715759,-46.8011055
1192,3.172612429,-2.635853052,6.609118938,23.24655914,-193.7324219,-57.71992874
1193,5.709252357,-2.559970856,6.338445187,11.51357555,-215.8722076,-58.04201126
1194,7.545058727,-1.492474079,6.621725559,3.632483244,-220.8928528,-52.60500717
1195,8.925354004,-1.545600176,7.062620163,-1.628456473,-221.6618347,-48.80603409
1196,8.642317772,-2.466824532,6.879584312,-1.410442829,-218.0458984,-44.18540192
1197,7.808278084,-3.294435024,7.526731014,4.442531586,-225.4629822,-40.99915314
1198,7.996697426,-3.124150276,8.453018188,10.71515751,-233.5106506,-36.81938934
1199,7.715242386,-2.486283541,8.33538723,2.527764559,-231.4735565,-35.58195114
1200,7.355463028,-2.873942852,8.646229744,-3.334239483,-226.7850342,-34.52667618
1201,6.552388191,-2.418390989,8.256445885,-9.962255478,-220.4138336,-31.62093544
1202,6.116880894,-2.633019924,8.01011467,-5.314813614,-197.4963226,-24.06591415
1203,6.497810841,-2.82749176,7.512498379,2.926727057,-173.8621216,-19.50738144
1204,6.371883392,-3.168378115,7.185146332,13.48149204,-139.3539429,-17.88428307
1205,7.926436901,-2.808069229,6.285531521,15.41006851,-90.99474335,-18.69209862
1206,8.727373123,-2.738344669,6.126940727,16.75236893,-51.12704849,-16.676651
1207,8.689516068,-2.043492317,5.404200554,15.50150681,-22.48600769,-16.6710968
1208,7.945611,-0.969050527,5.185254097,13.21299934,2.22055316,-12.38969707
1209,8.513847351,-0.024373416,5.462363243,-2.228885651,22.57671165,-7.478795052
1210,8.98244381,-0.073022,5.995425701,-12.48658562,31.43745613,2.534790277
1211,8.840529442,-1.019400954,6.862243652,-14.95076847,54.2265892,12.06950378
1212,9.133692741,-1.491505623,6.927568436,-21.66459084,69.26760864,24.00400543
1213,8.620609283,-1.406024814,6.050220013,-33.11839294,83.407547,33.46844482
1214,8.561879158,-1.143606663,4.434429169,-50.82679367,131.7998505,35.51265335
1215,7.053507328,0.155933082,3.34884882,-55.70198059,167.9069824,43.62501144
1216,4.315008163,1.076036334,1.312069178,-31.18796539,182.9632874,47.09911346
1217,3.477604151,-0.128833085,2.760948658,-31.05631065,202.5811615,51.6942215
1218,3.682786465,-1.519121528,3.764871359,-44.27553558,212.1721039,59.41498947
1219,3.717028141,-1.977705479,6.261544704,-40.52906418,218.2203064,69.24913025
1220,2.468874454,-1.687709093,7.550361156,-36.30371857,215.3529968,71.83737946
1221,2.9752388,-1.583240032,7.542032719,-38.98164368,205.6309662,60.46707916
1222,4.006014347,-3.013198614,6.607365131,-45.84825897,185.8115082,58.13472366
1223,4.543088913,-4.529862404,5.512032986,-12.08908081,174.2924042,66.24997711
1224,5.553633213,-3.797629833,6.119921207,9.616867065,164.5839844,61.03207016
1225,6.284468174,-0.966148376,7.035802841,-2.814083576,154.3001099,54.61160278
1226,7.599826813,-2.148959637,8.67284584,-48.62285233,150.1945801,53.73072052
1227,7.511883259,-3.271183729,9.047737122,-54.42144394,148.226593,42.92552567
1228,7.496415615,-4.374096394,10.13534069,-18.00294876,129.9279022,29.51326561
1229,8.096061707,-5.767468452,9.844267845,8.840022087,97.40058136,29.76887512
1230,9.875284195,-5.753774166,9.558701515,-9.057171822,78.32241821,32.80330658
1231,10.45868301,-4.865645885,9.435227394,-14.85725975,94.14962006,21.55414963
1232,9.251767159,-3.862246513,10.0660162,-8.737902641,102.9422531,20.94244194
1233,7.620384693,-2.347853899,8.304487228,4.975696564,76.65210724,18.02040482
1234,8.415784836,-3.668716431,7.409150124,9.407972336,40.01233292,28.55761719
1235,6.727336884,-4.035500526,6.031139374,9.693522453,11.59740353,40.26577377
1236,3.401335001,-5.3609128,4.862146854,23.87235832,2.25238657,42.2089386
1237,0.883714378,-3.633638859,7.914836884,41.18172073,76.12504578,30.83329391
1238,-1.00284481,-1.071623206,10.91390419,54.93889236,137.8390045,15.5702858
1239,0.260916531,-4.787351608,12.37489414,36.4880867,110.479332,26.00882912
1240,0.991026878,-5.744987011,9.957165718,40.64612198,112.8134842,28.44840813
1241,-0.407965213,-2.856841087,9.456185341,87.44902039,100.6188202,20.78021049
1242,-1.153357506,-1.17812562,8.149820328,78.04732513,76.61922455,15.72193432
1243,-1.242540836,-0.694855928,8.529324532,81.03215027,55.26652527,19.5209713
1244,-1.040754199,-0.588409841,8.671545982,78.15428925,46.08078766,20.83145523
1245,-0.959029615,-1.316359758,9.791556358,52.9276123,54.09104156,17.34501648
1246,-3.17568469,-1.544405341,10.18339443,28.45398521,52.13241196,13.16232491
1247,-3.456960201,-0.901694357,8.156085968,14.71124554,31.70952225,8.056331635
1248,-3.537096739,-1.125661016,7.947654724,9.346096039,11.61562634,5.782469749
1249,-3.112722397,-1.739454746,8.333644867,3.743156195,-7.434761047,4.435480595
1250,-2.105023384,-1.566439748,8.614159584,9.95716095,-15.68715668,2.644585133
1251,-1.626000047,-1.822367191,9.94424057,14.57306099,-25.31826591,0.703589261
1252,-2.153908491,-2.324861526,10.0843401,8.120040894,-33.33982849,-0.881279171
1253,-2.346195459,-3.021586895,9.728740692,-3.948152065,-42.57382202,3.236172438
1254,-1.843980432,-2.880592585,9.344394684,-2.337495804,-53.25975418,-1.355879426
1255,-1.585220337,-2.867250919,9.955392838,-0.901764274,-60.28866577,-7.377288342
1256,-2.234136343,-2.302284479,10.93994713,-4.166099072,-62.71922302,-7.344667435
1257,-1.137456179,-1.436422706,10.69139481,-2.625265598,-65.49935913,-10.77473927
1258,0.043244749,-1.326159239,10.48923206,6.132795334,-70.16741943,-8.985466957
1259,-0.11295554,-1.726964951,11.352561,11.76557636,-77.00097656,-6.525981426
1260,-0.638360977,-2.154236555,11.92033577,8.580348015,-89.81474304,-4.873679638
1261,-0.519253731,-2.347263813,11.93921661,13.09976578,-104.6819611,-7.006962776
1262,0.254194021,-1.918054461,11.69244099,18.41298676,-110.6821365,-16.80312347
1263,1.239383936,-1.367843628,11.44905376,18.46476364,-113.836441,-16.90247536
1264,1.438311934,-1.862104535,11.38432789,19.19548798,-110.5508881,-13.74299526
1265,2.067860365,-2.435318232,11.38064289,15.07686043,-97.04512024,-13.38242531
1266,2.691627502,-2.606298923,11.08968735,9.857406616,-81.12646484,-13.74397755
1267,3.124979019,-2.612709045,10.77038479,9.119074821,-67.50986481,-12.34897327
1268,3.049643755,-2.235396385,10.62261391,13.02245522,-58.58862686,-11.58496666
1269,2.658785105,-1.862182856,10.44892597,16.49354362,-53.91967392,-11.34837055
1270,2.900812864,-1.635495901,10.53598976,21.21401024,-45.86010742,-11.94034958
1271,3.36144352,-1.719545245,10.79738903,20.35029984,-37.26944351,-7.478034496
1272,3.533504486,-1.712993383,10.93979836,19.76684189,-35.32550049,-6.285604477
1273,3.723672152,-1.565578938,11.23031425,18.89560127,-33.14694595,-7.505437851
1274,3.701749325,-1.536692739,11.16176224,18.00098038,-29.9571991,-8.425188065
1275,3.690215826,-1.631129146,10.8192091,22.4887352,-26.46910477,-11.77775574
1276,3.727605104,-1.46918273,10.55514622,22.18548584,-19.21749306,-12.2291975
1277,3.709534645,-0.517405093,9.971025467,20.42180061,-13.02686596,-6.877204895
1278,3.734807014,-0.74643594,9.505433083,20.12157822,-0.381783515,-5.384246349
1279,3.911676884,-1.386223912,9.626044273,20.08885956,14.15973663,-5.500480652
1280,4.075781822,-1.753268003,9.617156982,11.90626907,21.42668533,-4.105167866
1281,4.050192356,-1.074122667,8.61971283,-4.504640579,29.1098423,1.29458499
1282,3.878944874,-0.759743452,8.169676781,-1.63093698,41.19841385,4.901090145
1283,3.330195189,-1.251683116,9.627790451,5.481606007,63.54600525,4.405293465
1284,3.25777483,-0.458949864,9.810269356,-11.25425053,58.89538193,8.421648026
1285,3.319778442,0.863667369,9.23495388,-21.32307625,55.96001434,8.437194824
1286,2.929923534,-0.871035635,10.01170444,-39.15159988,55.73474884,10.65444756
1287,2.280189276,-1.502082944,9.929236412,-43.65314102,52.55560684,16.44002724
1288,1.924463868,-1.793010712,9.785923004,-25.45985985,43.83283234,16.12646675
1289,1.49144268,-1.351562381,10.21080971,-29.76618004,35.06215668,12.11249352
1290,1.103513002,-0.67167294,10.11456013,-33.25296402,17.28713608,5.150855064
1291,1.209563971,-1.276353002,12.13522434,-47.95981979,-4.371541023,-1.523231626
1292,0.814706564,-2.023659706,12.01559258,-76.4334259,-32.00501633,-9.099160194
1293,0.482120812,-1.475250959,10.70877171,-76.29704285,-85.40746307,-7.545568943
1294,0.337693721,-0.618703485,8.716672897,-43.09321594,-135.7402496,-13.79069519
1295,1.956261158,-1.909410119,8.80052948,-23.23960304,-176.6737518,-20.48286438
1296,4.030701637,-1.747077823,7.813672066,-3.901997566,-204.9157104,-27.14014626
1297,6.24603653,-2.228622198,7.86741972,2.654655218,-218.0058441,-43.76263809
1298,8.266933441,-3.740553141,7.939287663,5.618555069,-224.3006439,-48.67684174
1299,8.936992645,-3.573277235,7.849861622,16.65698624,-217.4311981,-44.83532333
1300,8.165137291,-2.834347248,8.53428936,15.05538273,-208.8981171,-49.92085266
1301,7.582523823,-2.826034069,8.362773895,27.29098511,-212.6843719,-51.55010986
1302,7.343324661,-2.182751894,8.162241936,36.37657928,-213.8277283,-49.95384216
1303,7.606711388,-1.540039301,8.990345001,30.71906662,-215.5425568,-47.50324631
1304,7.337947845,-1.906412601,8.53969574,27.83748055,-216.4838257,-44.26529694
1305,6.538524628,-2.66997838,8.860491753,28.78660011,-205.4751282,-44.66739273
1306,6.088877201,-2.281083822,8.278341293,25.50019646,-187.0541077,-44.19205093
1307,6.53166914,-1.406018257,7.546557426,28.40240479,-163.5457916,-40.27727127
1308,6.680969715,-1.242279768,6.791422367,23.34033966,-139.039505,-38.81864929
1309,6.855350018,-1.500226378,6.488368034,21.56046104,-107.3574219,-36.60955811
1310,7.305696487,-1.071404457,6.286933422,25.30604744,-82.79640198,-31.98708153
1311,7.756206512,-0.956519604,6.09830904,25.63154221,-55.77854538,-30.24380493
1312,7.914698601,-0.989042222,6.474683285,18.17205429,-29.64055634,-25.71154022
1313,7.888348103,-0.318394303,6.639565468,13.13428974,-12.36853981,-17.30001831
1314,8.218598366,0.098549888,6.036612034,17.31354904,1.099561095,-10.55407429
1315,8.792192459,-0.554250896,6.235372543,7.818433762,16.81715965,-5.506173611
1316,8.635881424,-0.947001457,7.188073635,-15.41609764,23.68621445,2.847250223
1317,8.608330727,-1.47580111,6.359366417,-42.06289291,38.50369263,11.05858803
1318,8.536978722,-1.336039662,4.960184574,-55.27933884,73.51475525,13.74301052
1319,8.300333023,-0.053419206,2.991865873,-66.52548218,115.1681213,15.23764324
1320,6.285528183,1.501097918,0.279716551,-54.67964554,125.4553299,20.39325333
1321,5.040951252,1.517688155,1.036643028,-24.08684158,145.6511383,30.74531174
1322,4.88883543,0.207515359,2.863415956,-28.12569427,162.9308624,30.11069489
1323,5.732993603,-0.03955318,4.55371809,-33.10794449,179.1837769,37.47345734
1324,5.566210747,-0.504839182,5.44930315,-48.32250595,178.0710297,43.50487137
1325,4.986022472,-1.33193171,5.820430756,-47.52040482,177.3905334,46.78063202
1326,4.559788704,-1.754903197,5.952519894,-37.46833038,172.8016968,39.13712311
1327,4.695353031,-0.966676712,5.672701836,-21.17507553,170.1569519,36.8228302
1328,4.910839558,-0.630322397,6.775526047,-11.46482182,169.3095245,35.81084824
1329,5.079888344,-1.562599897,7.944198132,-20.20539665,164.7080536,36.20611572
1330,5.92688036,-2.054133892,8.581835747,-19.37225342,155.6043854,31.74231339
1331,6.71311903,-1.839671731,9.460754395,-14.06810379,153.228363,26.51672173
1332,7.704570293,-1.945968986,9.56008625,-0.843516409,152.4859314,25.14232635
1333,7.922419548,-2.559895039,10.65992355,21.21907425,155.1968689,27.17807961
1334,7.887813568,-3.014969349,11.37661457,30.1605072,143.5640869,25.73048401
1335,8.932240486,-3.257008076,11.81571007,11.03039455,110.8636169,23.26086426
1336,11.14162922,-2.220930338,10.76928711,-18.39779472,84.29683685,21.34306335
1337,10.82124233,-1.042803049,10.83019447,-32.65630722,70.85639191,14.61388016
1338,10.3936739,-0.024742791,8.996865273,-16.98627853,40.43048859,17.80374527
1339,10.36674023,-0.651679814,7.732804775,-9.070520401,30.17234802,20.42922592
1340,9.574437141,-1.23491466,6.133990288,-22.12907982,26.7359848,29.60999489
1341,7.022080421,-1.57636857,4.650384903,-31.46892548,14.2620554,43.25408936
1342,4.242583275,-3.164444447,6.007862568,-34.59539795,23.86392975,47.24550629
1343,2.839148521,-4.814509869,10.90930843,-25.49629974,66.95597839,51.02680206
1344,2.624956131,-4.837647915,12.38861847,-21.63451767,105.7827988,46.99781418
1345,4.320375919,-6.382862091,10.70138168,-3.459983826,125.6343918,41.76109695
1346,2.454152107,-4.770873547,10.37534428,42.03234482,135.6838531,27.45178032
1347,0.965673804,0.296228826,9.101364136,75.07818604,114.4165878,16.10949516
1348,1.070555568,1.86005187,8.449938774,69.05430603,84.48688507,17.47678185
1349,1.172086477,0.129442006,9.843593597,49.4924736,73.90757751,18.84675026
1350,-1.757677913,-1.498573899,10.34044266,20.69421005,57.30144882,20.49110031
1351,-1.539668322,-3.623265743,9.241704941,-8.215662003,46.42501831,10.71388721
1352,-1.422069788,-3.173403978,9.53601265,-3.298493147,46.56598663,4.691021919
1353,-2.377924204,-1.369586825,9.377813339,15.06630325,39.27716827,0.408525079
1354,-2.193323374,-0.35209024,8.633285522,39.32132339,17.78917503,4.017314434
1355,-1.954358816,-0.54651165,8.84357357,54.3372879,-8.072683334,0.733113706
1356,-0.934820294,-1.030932665,8.651729584,46.13768005,-13.45948887,7.334500313
1357,-0.215358645,-0.445874155,9.50056839,34.31357956,-13.35424709,10.36838722
1358,-1.579837918,-0.147295058,9.413010597,20.08199692,-13.61864948,7.648462772
1359,-1.730045438,-1.313604474,9.974844933,0.617632091,-21.20615959,6.312522888
1360,-0.808223009,-1.011655211,10.01309586,-7.60368681,-33.80551147,-0.954192281
1361,-0.983402908,-0.616592109,10.09027576,-9.782528877,-33.09038544,-1.45343709
1362,-0.721097827,-0.59495461,10.29925728,-13.73998737,-40.14838791,0.085918352
1363,-0.118810505,-1.233568311,10.92224026,-17.95038986,-46.59747314,0.516779244
1364,0.616028428,-2.061926126,10.91521263,-18.55147362,-47.46213531,-0.987685919
1365,0.228125244,-2.007793427,11.17920113,-10.03758526,-51.17782974,-2.998123407
1366,-0.575885415,-1.396432757,11.04151917,4.645946503,-52.88696671,-5.302644253
1367,0.661232114,-1.293404818,11.17006493,13.97895622,-55.80337524,-6.176242828
1368,1.089665413,-1.592149019,11.19735718,10.79988098,-57.56066132,-5.70802021
1369,1.041024208,-1.474313617,10.82397556,2.317029953,-58.75296021,-6.921654701
1370,1.475405931,-1.590976,10.50669289,-3.954012871,-57.48159027,-3.664470911
1371,1.330465555,-2.106029987,10.37849045,-6.353480339,-53.07590103,-5.939984798
1372,1.383607268,-2.014797926,10.68390369,-10.45145512,-49.61303329,-9.150087357
1373,1.680678964,-1.83472836,10.61925411,-11.52853775,-44.71483612,-9.901132584
1374,2.235285044,-1.588315487,10.79767418,-8.087587357,-42.91331863,-9.326993942
1375,2.279889107,-1.29624927,10.47477913,-3.017085314,-40.20726776,-9.939112663
1376,2.28356266,-1.877717972,10.370471,-0.998009741,-33.51564407,-13.1025877
1377,2.828843594,-2.157243729,10.41757965,-6.023391724,-29.49289131,-10.01634884
1378,2.666575193,-2.324770212,10.44845486,-12.46105289,-22.68803978,-9.199331284
1379,2.575867891,-2.30411768,10.65516949,-15.41644382,-13.818964,-7.3533988
1380,2.946000814,-2.030683994,10.6852684,-17.44581032,-10.12253952,-6.58475399
1381,2.965854406,-2.513039827,10.67686749,-13.97689915,-2.150827885,-4.771162033
1382,3.178962469,-1.93382287,10.56308746,-14.76852036,6.545972347,-4.90844202
1383,3.132717371,-0.940094769,10.63485336,-20.94724274,13.34745979,-1.903981805
1384,2.878026247,-1.504600883,9.913725853,-36.78771973,18.04312897,-1.21910131
1385,2.908027172,-2.060126781,8.680665016,-31.09277725,19.62899971,0.843506992
1386,2.660344839,-2.7909832,8.422314644,-23.11596298,18.04667473,5.060842991
1387,2.62429142,-3.078518152,8.680623055,-20.06553078,17.96582794,6.65723896
1388,2.679402351,-2.151649475,8.853910446,-6.533452988,18.79986382,9.227702141
1389,2.387953997,-1.630832314,8.76750946,-2.031057835,19.82380867,3.071069002
1390,2.557667017,-2.337348938,8.804984093,-3.778052568,21.10734749,-5.246777058
1391,2.55343771,-3.600223541,8.942386627,-0.089599676,9.053082466,-9.247297287
1392,2.056337118,-3.663131714,11.90883636,-16.4670887,3.764691353,-18.28749084
1393,0.444170058,-1.672915816,13.29519176,-28.51396751,-42.54553604,-21.01369286
1394,0.376239568,-1.648855567,10.31505775,8.813872337,-110.3418961,-22.63383293
1395,1.510249138,-2.553661108,9.182483673,22.16772079,-153.4941254,-30.07268143
1396,2.894911289,-2.647302628,8.992573738,35.07798004,-181.3266144,-34.10359192
1397,4.31192255,-1.566258669,7.464236736,37.35924911,-214.0786285,-41.81377029
1398,6.460116386,-1.846068144,7.47970295,33.53115082,-222.9487762,-47.38818359
1399,8.409050941,-2.101049423,7.273516178,36.96043015,-222.1013641,-45.10245132
1400,8.406448364,-2.394460917,7.194882393,40.10783768,-220.9373016,-48.58262253
1401,7.691732407,-2.233389854,7.298688412,47.56405258,-221.6877441,-50.05845261
1402,7.318497181,-1.325149179,7.93068552,42.55138016,-227.5175476,-42.17141724
1403,8.213151932,-0.442408562,8.280012131,30.54353333,-232.3750305,-37.65584564
1404,7.990452766,0.195309579,8.302494049,9.50186348,-228.3122101,-26.74502373
1405,7.218501091,-1.518852353,8.50518322,1.692672014,-216.4568787,-14.34914303
1406,6.620690346,-1.219391823,8.706479073,-11.92160416,-196.1899109,-16.51633263
1407,6.834686756,-2.038192511,8.385467529,-15.15482235,-176.847702,-20.50790215
1408,6.767312527,-2.278189182,7.521212578,-21.89630318,-144.3961487,-22.33377647
1409,6.776793957,-2.408527613,6.92690134,-18.03792381,-110.5449066,-27.50580788
1410,7.132452011,-1.763420701,6.688456059,-10.8331852,-80.69171906,-27.18143845
1411,7.141499996,-1.046125293,6.08037138,-0.053774659,-60.60997391,-23.61266136
1412,7.39095211,-1.119075418,5.937780857,4.603126526,-40.17679214,-17.47896767
1413,8.090576172,-1.451313734,5.711061001,7.935165405,-10.91178226,-14.49975586
1414,8.633432388,-1.698058128,5.685947895,18.94938087,21.10166359,-12.58767223
1415,8.551128387,-2.081012011,7.11592865,28.70740509,43.05739212,-11.5854435
1416,8.530912399,-2.398053646,7.882050037,23.23631096,30.31554222,1.670974493
1417,9.059371948,-2.113298655,6.763995647,0.556087375,42.60974121,8.490083694
1418,9.899467468,-1.473478079,5.037522316,-14.19827271,85.72434235,11.40912151
1419,10.23855877,-1.854813337,4.103899479,-35.57930756,145.1360016,21.18529129
1420,7.285978794,0.330715448,2.98973155,-19.93962288,172.1548615,28.88918304
1421,4.409825325,0.927470684,2.479062319,1.770739913,172.2434082,32.14624405
1422,3.996232748,1.124341488,4.079922676,-6.076224327,183.5093384,36.45799255
1423,4.986775875,0.470823914,5.344494343,-15.93225288,191.3887482,46.00042725
1424,4.264825344,0.484712303,5.862906456,-20.65608406,202.6435699,47.09159851
1425,3.287753105,0.614109933,7.115587234,-33.51050186,207.5351715,44.11689758
1426,3.18872571,-0.250564873,7.606367111,-47.40478897,201.5247955,44.69929504
1427,3.612437487,-1.500980616,8.096576691,-46.33215332,192.7604065,46.71121597
1428,4.139944553,-0.807609081,8.080323219,-38.84712601,180.7023926,38.81290817
1429,5.090015411,-0.839216113,7.605045319,-42.17576599,172.8869934,31.59270477
1430,5.335534573,-1.45445168,7.62405777,-50.21609116,171.8493195,25.17665482
1431,5.252776146,-2.012791634,8.992973328,-43.44855118,166.7798615,21.42047501
1432,4.677264214,-1.80678916,10.45501804,-27.22330284,157.2165375,15.32490253
1433,4.036551952,-2.172087669,10.86338902,-7.676075935,138.049469,11.19019032
1434,4.532149792,-4.107557297,10.98215771,-0.987862766,120.4992905,13.8559227
1435,6.344055176,-3.910531282,10.29089355,-13.30129051,105.1467133,17.19317627
1436,8.256984711,-2.523656368,10.14458466,-36.55324936,85.84798431,9.667294502
1437,10.35086441,-2.446434259,11.34508228,-68.16228485,87.30527496,10.07215214
1438,9.595267296,-2.890266657,11.11979389,-70.67884064,90.11631775,20.49172783
1439,8.904062271,-3.074502468,8.611497879,-53.62343597,71.82237244,23.95065117
1440,7.612888336,-2.821886063,7.419901848,-18.32089043,58.88975525,20.63868904
1441,7.411595821,-2.873267889,6.344947338,-12.96324921,43.39186859,23.02124786
1442,6.995100498,-2.631608009,5.19386673,-20.29503059,29.70440102,32.12238693
1443,4.745303154,-2.716526031,5.216659069,-23.28141212,25.91212845,43.58929825
1444,1.432142258,-3.429517269,8.276716232,-30.03091431,45.65940094,47.66454315
1445,-2.267767429,-3.082915783,8.49766922,-10.67065144,66.40722656,49.08339691
1446,-1.256184578,-6.289958477,10.36136723,-14.75894928,72.63851929,39.71054459
1447,0.302835464,-8.851347923,11.51268959,-23.60830307,84.95219421,33.25389481
1448,0.49736464,-5.79584074,9.300316811,8.538126945,82.29965973,23.67710114
1449,0.43852967,-0.827630103,7.63565731,60.59318542,56.7399559,19.10863304
1450,0.101978466,-0.380518675,10.69261646,67.39733124,35.92494583,22.31844521
1451,-0.641040087,-1.892838717,10.61013508,51.12568665,20.14406776,25.52645302
1452,-1.665502667,-2.861679792,10.71305656,39.43416977,23.67595673,20.64963341
1453,-1.674663424,-2.724849939,10.26484776,29.20558929,22.48340988,9.910840988
1454,-2.256912231,-1.610213995,9.399394035,29.14434624,11.0816946,4.97802496
1455,-2.152750731,-1.463718891,9.449368477,23.21383286,-1.106156945,4.229842663
1456,-2.294350386,-2.328859806,8.574766159,22.48776627,-26.55325508,5.531163692
1457,-2.133655071,-2.876768827,8.999927521,22.405756,-32.70231247,5.352277756
1458,-1.41695857,-2.766098499,9.501026154,21.33215332,-33.28015518,1.63317728
1459,-1.204496145,-2.63429904,9.789214134,14.11858082,-33.91537476,-0.038540892
1460,-0.888346076,-2.754734039,10.34395981,5.710712433,-37.00087357,-3.330211639
1461,-0.816912532,-2.903363943,10.55470657,6.111459732,-42.11810684,-5.594406605
1462,-0.703790128,-2.927166462,10.97179413,6.672841072,-41.57843399,-2.129011393
1463,-0.577399254,-2.300734758,11.02880859,9.673126221,-36.57933426,-4.130926609
1464,-0.531976581,-1.40278542,11.38602257,22.15120506,-42.87700272,-3.39806509
1465,-0.512253225,-2.598668337,11.12078285,29.20405579,-55.23295593,-4.17458868
1466,0.343328625,-3.446259499,11.2232666,27.57953262,-58.33900833,-4.208670139
1467,0.826548219,-2.995545864,10.79049587,26.3878994,-58.19199753,-2.929308653
1468,0.43307367,-2.900434494,9.900707245,39.64913559,-64.37181091,-3.847040892
1469,0.717052579,-4.123006821,10.29626751,48.20445633,-66.81412506,-5.791613102
1470,0.290274441,-3.520562887,10.54182625,40.18217087,-55.77704239,-5.20045805
1471,0.79216665,-1.51349926,10.68395329,49.11656189,-46.8045845,-6.551528931
1472,1.452058554,-0.756208301,11.41134357,54.30830002,-42.72533417,-6.524689198
1473,1.984506965,-0.821957052,11.58966732,42.33061981,-39.61332703,-0.780095279
1474,1.645571709,-1.240699053,11.17493248,34.03883743,-35.61808777,0.301604897
1475,1.726251721,-1.378894567,11.00339699,33.79562378,-36.43414307,-2.68748045
1476,1.37987566,-1.139667153,10.97626781,29.88657188,-38.61935043,-2.170611382
1477,1.485811949,-1.028892875,10.8645134,25.38006592,-41.98793793,-1.101745844
1478,1.938833714,-0.856773257,10.90368938,20.48350906,-42.73981857,-0.564489126
1479,1.988657236,-0.785536468,10.79387379,17.78816795,-40.61286163,-0.184291065
1480,2.14327836,-0.790950239,11.10548687,14.37304211,-35.42103195,-0.761277318
1481,2.370767832,-0.434646249,11.19260406,11.27783203,-33.64468384,-2.700582743
1482,2.537659168,-0.180046976,10.98944473,9.58502388,-33.36137772,-2.34792614
1483,2.337082148,-0.396332949,10.88685322,3.227169991,-36.22494507,-2.838130713
1484,2.334039688,-0.565487921,10.61804104,-1.191478014,-40.54745102,-3.378610849
1485,2.41810751,-0.963596463,10.63628197,-1.233605504,-43.47869492,-4.669828415
1486,3.031111956,-0.841167808,10.33349705,-3.843978405,-41.83173752,-7.439371109
1487,3.435398102,-0.233546034,10.22767544,-8.451207161,-32.38646698,-9.157122612
1488,3.645406961,-0.195846811,10.24535465,-18.68826103,-19.55963516,-5.62515974
1489,3.65481329,-0.697070181,10.18890285,-24.34876442,-14.30133533,-1.39606905
1490,3.685808897,-1.114589095,10.3272047,-21.73854446,-10.94727516,-0.824154437
1491,4.2685256,-1.118369818,9.926030159,-21.48339272,1.914008141,-0.713775933
1492,4.235200405,-0.457790077,8.403931618,-19.61215019,28.78943253,3.566282511
1493,3.371109724,0.250156969,8.857743263,-26.956213,46.34492874,1.136113882
1494,2.723536491,-1.227993369,8.469992638,-42.82658768,36.55708313,6.748343468
1495,2.730133772,-0.481012285,8.431844711,-44.10705185,39.03600693,11.61715126
1496,2.756867886,-0.281290919,9.581686974,-31.52915382,38.86528397,10.72090244
1497,2.8376441,-1.428321242,9.179149628,-37.11195755,25.27778816,14.82435513
1498,2.743412733,-1.706452966,9.580053329,-27.32890892,14.53016853,17.42284012
1499,2.617688417,-1.521143317,9.482854843,-21.26691055,7.321352482,17.24589157
1500,2.937139273,-1.901159167,9.739990234,-21.10037422,1.121243,11.06279373
1501,2.840370893,-2.309582233,10.38540268,-25.81614685,-4.988424778,5.562963963
1502,2.712881565,-2.374133348,9.527243614,-27.51756477,-14.48355484,-0.235048503
1503,2.393606901,-2.626723528,10.53734684,-24.23771667,-27.09766006,-5.727974415
1504,1.828231573,-2.556785583,11.28345394,-29.74018669,-57.30632782,-6.07818222
1505,1.588010192,-2.484812975,10.64042282,-20.08093834,-97.55461121,-10.07536697
1506,2.581924677,-2.051193237,9.002179146,12.40444088,-138.1102142,-15.72059727
1507,4.192759514,-2.562338829,9.098948479,34.89585114,-162.7135773,-20.27345276
1508,5.355659008,-1.622152209,9.016835213,49.57729721,-179.8862152,-24.87290955
1509,6.04968071,-1.007463694,8.339001656,43.03279877,-197.1014557,-29.7141819
1510,6.533422947,-1.290999293,7.321727753,24.32730103,-200.3844604,-27.17492294
1511,7.262270451,-2.580819368,7.917222977,10.81400776,-198.431488,-33.59667587
1512,7.794700623,-2.612554789,9.035289764,-2.874989033,-199.2962799,-46.6473999
1513,7.044658661,-2.054516554,8.372815132,-1.845717072,-203.4784698,-46.94477844
1514,6.407463551,-1.968642473,8.273647308,7.259289742,-214.5581665,-48.66669083
1515,6.263387203,-1.680391073,7.827232838,7.288490772,-218.6726379,-52.36449814
1516,6.038881779,-1.700689673,7.583860874,5.981946468,-208.8312378,-57.49100876
1517,5.906971455,-1.552096248,7.1700387,6.632656097,-190.8659668,-53.79867935
1518,6.658737183,-1.627015114,6.941958904,11.33645058,-168.8948822,-44.58166885
1519,6.876444817,-2.215748787,7.310653687,7.134384155,-145.0478973,-35.13896942
1520,7.234326839,-2.860034227,7.140051842,6.059035301,-109.093689,-30.53019714
1521,7.679475784,-2.262519836,6.915032864,18.5790596,-81.48848724,-25.827528
1522,7.989346027,-1.023131371,6.681784153,22.47991371,-68.24147797,-18.34470749
1523,8.117686272,-0.517543554,6.079508781,14.49842548,-44.8574791,-11.42355061
1524,8.188612938,-0.510265589,6.261642456,-0.822297335,-23.37812805,-4.787458897
1525,8.425087929,-0.31321463,6.024177074,-9.183540344,-7.861784458,-1.762257099
1526,8.822003365,-1.239013195,6.167868614,-14.67776394,21.23654366,2.25348115
1527,8.846451759,-2.09712863,6.075387001,-35.08771133,34.88613129,9.626471519
1528,8.935533524,-2.05881238,6.368392944,-56.75292969,54.58047104,22.38024139
1529,9.142727852,-2.386251688,5.339059353,-62.90608978,83.32120514,32.33559418
1530,7.634016991,-1.983599901,3.921516657,-65.30108643,124.3488235,36.84939194
1531,5.570295334,-0.097218819,0.181017309,-43.62087631,129.8730316,42.47340393
1532,4.272533417,0.637491107,2.102797031,-15.61619282,144.2077484,42.61921692
1533,4.165124893,0.309362084,5.382696152,-21.44012833,153.8401947,41.88966751
1534,4.803201199,1.023261547,6.495200634,-27.56754494,155.6723328,49.41228867
1535,4.776474476,-0.667472363,7.016943932,-37.72351074,153.9802551,55.6706543
1536,4.282488823,-2.176688671,6.702411175,-38.2841835,157.173172,61.08401489
1537,4.617292404,-3.289628983,6.793174744,-29.29133415,162.5285492,52.47044754
1538,5.301055908,-2.407981157,6.426537514,-10.11425781,159.2262268,41.1593895
1539,5.432740688,-1.101701021,6.388657093,7.088750362,147.8373566,37.91624832
1540,6.109942913,-1.01565814,7.119139671,2.111376762,142.6128998,35.15945816
1541,6.657535553,-2.209277153,8.30610466,-7.923128605,149.8453674,30.22707748
1542,6.970383167,-2.545728922,9.70498085,-4.636664391,155.253067,20.85745811
1543,6.903654099,-2.524122953,10.56811047,4.091135025,149.5850525,14.22538853
1544,6.462352753,-2.082223415,10.10506344,6.021279335,130.0091095,19.55513763
1545,6.133210182,-2.50140214,9.709381104,1.564653516,109.4498062,25.49918556
1546,7.399748802,-2.850306988,9.314064026,-15.52806664,83.90195465,19.71179008
1547,9.633636475,-2.539808512,9.013500214,-32.92947006,68.87970734,12.23411846
1548,12.05222988,-3.798458338,11.24091339,-61.59082794,72.90432739,15.69014835
1549,12.56285954,-4.569695473,10.91527843,-91.27927399,62.95363617,27.75625038
1550,11.57867527,-4.187736034,8.620796204,-61.62898254,63.53717422,32.18023682
1551,10.43679333,-2.798749924,6.71455574,-5.778712749,41.37978745,34.07074356
1552,9.038029671,-2.296961546,5.908986568,-0.412731826,21.39987755,33.99307632
1553,6.937348366,-2.035663843,4.46550703,9.083877563,8.249410629,38.41888046
1554,4.955679893,-3.045464993,4.332121372,11.14224434,16.80959702,42.40976334
1555,3.327288866,-1.316414356,6.317728996,4.42270422,64.67736053,38.69008636
1556,1.608151078,-1.334780335,10.06529808,11.81800461,114.9232864,42.07800293
1557,1.290211201,-7.044513226,12.1454649,-25.13777733,121.2737503,44.71043777
1558,1.841723919,-7.226569653,10.04908848,-13.17756176,130.0521393,39.22115707
1559,2.042196751,-3.012562752,9.405771255,59.91448212,124.1122437,32.72219086
1560,1.792510867,0.591329098,8.928421974,46.23786163,107.6654739,33.79508591
1561,-0.334858567,-1.101439118,8.791432381,56.2767334,97.21698761,30.99528694
1562,-1.150924087,-3.037604094,10.70877934,31.72370148,81.1993103,29.63504982
1563,-0.767929912,-3.285500288,9.677977562,36.30885315,79.72382355,24.65150642
1564,-0.829736769,-2.917427778,9.359321594,44.42738342,76.56627655,22.73478699
1565,-3.755895853,-1.056207418,9.652222633,36.89574814,56.44383621,12.97515297
1566,-4.661042213,-0.749879062,8.184404373,35.18391418,14.83400631,6.970250607
1567,-1.630773902,-0.604531884,6.990539074,47.87023163,-3.251694202,7.191350937
1568,-1.343226671,-0.744368851,8.0722332,39.79859161,-15.50874233,8.79144001
1569,-0.775875211,-1.429538131,8.756416321,20.66301727,-16.67900848,8.047244072
1570,-1.765479684,-1.208430648,9.557982445,10.34627724,-15.27403259,7.900760174
1571,-2.163933039,-2.084934473,9.222147942,-3.534029007,-24.62260056,0.930537105
1572,-2.149505854,-2.372788429,9.953850746,-8.874199867,-31.92268562,-7.429856777
1573,-1.574915171,-1.825286984,10.2807045,-8.849356651,-39.75629807,-8.488458633
1574,-0.943039,-1.791772127,10.26119232,-6.578974247,-46.57980728,-3.438013315
1575,-1.20673573,-1.820248365,10.18951988,-10.77209568,-57.12194443,-6.030025959
1576,-0.766966641,-2.265216827,9.975906372,-11.50804424,-61.61166,-7.948993683
1577,0.210952774,-2.691424847,10.2385807,3.260323286,-61.69421005,-7.560517311
1578,0.548138499,-2.657592297,10.95855522,13.94909286,-61.99464417,-6.769744396
1579,-0.217074186,-2.238414764,10.85716534,23.19848824,-70.6364975,-4.949910641
1580,-0.394464672,-1.881699204,10.90988731,26.05994606,-83.96179962,-6.838387966
1581,0.351176143,-2.56685257,11.3136158,22.60489845,-91.78607178,-7.716031551
1582,0.994612515,-2.826532125,11.22486687,19.82501221,-90.25478363,-9.258600235
1583,1.35928607,-2.425438881,11.31685925,17.0131855,-89.29766846,-10.73112011
1584,1.840618849,-2.630327225,10.94765377,15.35295963,-87.44807434,-11.47559261
1585,2.348721027,-2.927930117,10.94919109,21.47309303,-76.381073,-11.53109837
1586,2.768218279,-2.343054771,10.89337444,19.59762192,-62.5533371,-9.932040215
1587,2.931707382,-2.013775587,10.51417446,18.34009361,-58.47589493,-7.538360119
1588,2.848562241,-1.617344856,10.18458748,20.91942596,-52.49245071,-7.334888935
1589,2.839197159,-2.092097759,10.42251301,24.1198864,-48.0835762,-10.25023937
1590,3.143996477,-2.264617682,10.63230515,20.57045364,-40.45420074,-11.44375229
1591,3.402278423,-1.736537576,10.73282051,23.98797226,-34.62963867,-10.97576904
1592,3.393711329,-1.069606066,10.7758131,27.53383636,-32.67908478,-12.0392046
1593,3.495107412,-1.060777903,11.04498672,20.37777519,-33.27407837,-12.01558399
1594,3.494214058,-1.410670877,11.10626316,12.11573696,-33.25173187,-11.58367443
1595,3.617139101,-1.665411115,11.06795788,9.939889908,-32.30249023,-9.541245461
1596,3.766906738,-1.964095235,10.97050095,9.320926666,-30.67460251,-9.099419594
1597,3.853528023,-1.422602177,10.73615932,4.17691803,-27.47891426,-7.56171608
1598,3.836527109,-0.824019432,10.63085938,-1.013887882,-26.53532028,-6.831712723
1599,4.255641937,-0.947229207,10.38012695,-2.481806993,-27.21908188,-5.397577286
1600,4.35704565,-1.59308362,10.39819431,-4.376090527,-21.23560143,-1.920507431
1601,4.638365746,-1.936535478,9.926281929,-12.1349678,-10.34782696,1.518552423
1602,4.563340664,-1.207345009,9.035957336,-14.40542221,4.543761253,6.365734577
1603,3.975179195,-0.88356334,8.594602585,-12.94508553,21.94501877,4.467460155
1604,4.366371155,-2.127366781,8.86661911,-8.821605682,28.96140862,6.409132481
1605,4.781498432,-1.041685939,10.07529736,-12.24316978,37.68434906,12.68581772
1606,3.922990322,0.773123562,10.6485033,-21.12314987,66.3656311,7.858520985
1607,2.480578661,-0.161702082,8.295822144,-12.71168232,57.65118408,17.80973625
1608,3.356939793,-1.627277136,7.777685165,1.966091275,29.69880676,21.96075249
1609,3.937149525,-1.053241968,8.258525848,3.567020416,30.7961731,19.43171501
1610,3.604845762,-0.035107497,9.087025642,-5.990078926,27.34739876,19.08423615
1611,3.380982161,-1.322093725,9.405127525,-30.12070847,18.38822746,17.77253151
1612,2.988859177,-3.205676556,8.843626022,-28.91605377,3.337399721,18.64842606
1613,2.696732044,-3.040337563,8.793861389,-19.7171669,-15.15763474,15.18422794
1614,2.588229179,-1.387744784,9.443623543,-10.61128426,-43.62542725,9.317942619
1615,2.782904148,-1.182603478,10.15336037,-5.247406006,-77.65987396,3.861722469
1616,2.55421257,-2.348237991,10.5481863,-6.679934025,-119.9203949,-6.201413155
1617,3.636031389,-1.954053164,9.491136551,14.97287464,-153.9011841,-10.59815693
1618,4.800922394,-0.278609723,9.181130409,14.59999943,-169.4976959,-16.93244934
1619,6.141640663,-0.709050894,9.231876373,-4.989051342,-182.8038483,-25.90542603
1620,7.089159966,-1.226863503,8.341151237,-7.363919735,-197.7865906,-28.22010612
1621,7.004601955,-1.585780501,8.258749962,-11.51027584,-205.7868958,-24.15609741
1622,6.866959572,-2.079914331,8.000526428,-22.30236626,-204.8047943,-27.1750164
1623,7.150240898,-2.082306623,7.621227264,-33.71893692,-200.5962372,-29.86426735
1624,6.790001869,-1.838754535,8.128436089,-30.75786591,-196.5069427,-27.56783676
1625,6.140389919,-1.881777167,8.616682053,-26.34123802,-191.9838715,-28.04776192
1626,5.864731312,-1.277875781,8.843463898,-25.04478264,-184.1639709,-27.82801056
1627,5.521876812,-2.224246979,8.916666985,-37.09912491,-171.9828033,-33.14038849
1628,5.743599892,-2.926706791,7.587990284,-35.28989029,-150.0485382,-34.6504631
1629,5.92782259,-3.85927248,6.635083199,-24.24621391,-125.8868637,-30.34108734
1630,5.972099781,-4.27596283,6.005022049,-16.26541328,-97.59577179,-35.26626968
1631,6.852802753,-4.48094368,6.546517372,-9.437662125,-68.76340485,-35.54807663
1632,7.364213943,-3.90963006,6.493380547,-4.765738964,-41.43175888,-33.42804718
1633,8.238921165,-3.266582727,6.065400124,9.241254807,-13.46429157,-34.26398087
1634,8.033340454,-1.174619913,6.337022305,22.46365166,7.686215878,-24.2709198
1635,7.512222767,0.562288404,7.401976109,20.71412659,20.5225563,-13.31868267
1636,7.406865597,-0.274917543,8.639741898,-8.550643921,16.75543213,-4.316500664
1637,8.446393967,-1.0827775,7.037994862,-38.43181992,35.7857666,2.174750328
1638,9.250630379,-2.547388077,7.654643536,-78.50637817,70.25830078,9.862296104
1639,7.731502533,-1.632617474,3.627615452,-67.88569641,87.61984253,19.02453423
1640,5.71309042,-0.796499252,1.889725327,2.421195269,104.6933289,20.74463081
1641,4.429282665,0.318845928,3.381866693,27.02750206,114.004425,26.29586411
1642,4.565237999,0.607988894,4.918649197,5.644940376,120.4464798,38.24650574
1643,4.731089592,-0.878443599,4.847678185,0.017705927,129.2943573,41.1282692
1644,5.156738758,-3.204505444,5.61830759,-3.692913055,135.2002563,46.07465363
1645,5.212251663,-3.237838507,5.89524889,3.541046143,138.3374786,44.07735825
1646,5.816390038,-2.978494644,6.134680271,5.734563351,133.9878387,38.40647507
1647,6.62846756,-2.834419489,5.865624905,5.50216198,128.4247284,39.20626068
1648,6.515059948,-3.374052763,6.632233143,16.64747047,125.8283539,31.96169281
1649,6.109303474,-2.777677298,6.697436333,32.16409302,119.6078262,22.40033531
1650,6.265400887,-1.142271161,7.398781776,36.85493851,106.1704636,17.05144501
1651,7.009741783,-0.872056127,9.261173248,11.41804504,103.3629608,11.83054066
1652,7.6410532,-1.302190304,8.362224579,-4.260051727,96.66088867,5.614374638
1653,9.427120209,-1.15833652,7.944529057,6.26452446,87.72102356,3.657221794
1654,11.3751421,-2.651927948,9.208245277,-14.64520645,96.73802185,1.143728733
1655,13.04973698,-2.849898815,8.884027481,-42.09700775,100.9298935,2.85637188
1656,13.81938362,-3.688135386,9.344049454,-49.71915054,97.51625824,8.705895424
1657,11.50120831,-1.979461074,9.276823044,-49.44523239,82.11561584,20.05843544
1658,10.72310734,-1.713306189,8.121988297,-31.71486282,60.79246902,16.94518661
1659,12.00229645,-1.0982517,6.53974247,-16.71118546,41.54099274,16.34667969
1660,11.61434555,-1.440129399,5.52813673,-18.4691143,27.48470879,26.79745102
1661,9.189177513,-2.257374287,3.995426178,-23.81121063,33.88896179,35.47984314
1662,5.574832916,-2.111793518,3.087576151,-11.50600338,58.91538239,35.42663574
1663,2.097849846,-1.668711662,5.860629082,-7.028638363,93.54223633,28.85607719
1664,2.796388149,-3.731742859,12.32821274,-20.1481266,143.2382355,40.87778091
1665,4.698465347,-8.323007584,13.95186329,-37.53192902,196.5082397,44.6385231
1666,2.06634903,-4.486667156,8.698018074,13.76430607,170.7717285,40.30892944
1667,-0.479605019,-1.471935511,7.436549664,77.19550323,128.4379883,32.88660431
1668,-0.370706439,1.306831598,6.609846115,34.83893204,107.708992,29.48701286
1669,0.636711359,-0.632816911,9.127875328,4.929207325,91.41687775,27.60483551
1670,-0.668544233,-3.26829505,9.936626434,-7.48929739,89.00064087,29.85247231
1671,-1.706068754,-3.206583261,9.224093437,6.799232483,82.16018677,23.14673042
1672,-1.481509209,-2.93200469,8.63811779,17.6336174,74.97725677,17.28779984
1673,-2.415019512,-2.067612886,8.984178543,15.32070065,55.82461929,15.01058865
1674,-2.488949776,-1.325333595,8.83411026,10.42096901,32.84096146,8.866693497
1675,-2.640184402,-2.781056643,7.579332829,20.86911201,15.03790474,2.239054918
1676,-1.26964426,-3.014094591,8.963263512,21.14500237,9.302049637,-1.861579418
1677,-1.096105695,-1.184668064,9.232920647,13.27593708,4.255329132,-0.677366793
1678,-1.389648438,-2.146540165,9.482104301,9.53584671,2.172437429,-0.899851203
1679,-2.083262444,-2.508544683,10.50198269,2.001940489,-5.982059002,-5.46318388
1680,-1.63752985,-2.022221804,9.831132889,2.939677238,-19.3701458,-11.56400776
1681,-1.406211853,-2.463519096,9.681337357,8.404449463,-30.00748444,-12.56526852
1682,-1.076755404,-2.74773407,9.946660042,5.444642544,-36.79234314,-11.87573814
1683,-0.839612782,-2.608045578,10.52231312,8.434652328,-42.15075684,-10.82655621
1684,-0.192302898,-2.759895086,10.8208971,11.71242619,-49.62562943,-8.285280228
1685,-0.175626799,-2.855460405,11.10639286,9.241475105,-55.31168365,-7.995383739
1686,0.126337588,-3.068536043,11.02370167,12.58104229,-58.57848358,-6.8772192
1687,0.593375504,-3.529821157,10.58496857,24.9494648,-57.85830688,-6.29759264
1688,0.576089799,-3.464747906,10.66637135,34.95248795,-55.40490723,-6.734660625
1689,0.663174868,-2.981114626,10.77372074,33.80356979,-53.89421844,-8.873206139
1690,0.856453061,-2.63675952,10.6488266,31.58461571,-57.41899109,-9.259185791
1691,0.878193259,-2.567327499,10.69776535,35.57478333,-62.05345917,-10.78096199
1692,1.319405556,-2.246452093,11.05521584,37.92705154,-61.78377533,-12.95222378
1693,1.60907793,-1.464143991,10.96029282,34.37572098,-59.47706223,-14.24385834
1694,1.60635972,-0.821852446,10.69260216,32.73887634,-63.28263092,-15.23396873
1695,1.663084269,-1.201990724,10.8972168,29.92877197,-64.9285202,-15.33850002
1696,2.23400116,-1.560936213,10.49930763,32.07010269,-55.53059769,-19.13209724
1697,2.681425333,-1.881607533,10.26843166,38.51531601,-42.46403122,-22.42526054
1698,2.828532219,-2.007779121,10.77606392,30.72262192,-37.93930054,-21.05302811
1699,2.855952263,-0.625442624,10.60173225,19.46012878,-29.76413345,-21.42287445
1700,2.682570219,0.042715434,10.38685322,23.78176117,-21.12681389,-23.55678177
1701,2.534365416,-1.100981593,10.571558,23.62108231,-23.41340637,-18.92445183
1702,2.874671698,-2.055536985,11.13711452,9.106750488,-24.25032425,-13.06756783
1703,3.068214893,-1.612183809,11.46574974,2.197268963,-25.88441849,-12.84933567
1704,3.31686902,-0.881629407,11.30517387,5.418332577,-24.85348511,-15.82989407
1705,3.56572628,-0.627131104,11.06959629,-0.089612737,-26.9414444,-15.47002697
1706,3.675224781,-0.618597806,10.50908756,-9.579806328,-30.831604,-7.549839497
1707,3.524157524,-1.016941547,10.25299835,-12.55698299,-26.30649567,-2.57531333
1708,3.754499197,-1.658425927,9.786292076,-16.14090538,-19.77145004,1.687240481
1709,4.027258873,-2.186358929,9.470069885,-18.15003014,-11.23283386,6.527100563
1710,3.789500713,-1.451146245,9.353886604,-17.69811058,1.039070368,9.261129379
1711,3.408581257,-0.067152679,9.421577454,-23.48371124,9.175069809,11.15640926
1712,3.808363914,-0.179427102,9.497786522,-29.88625145,16.33124733,13.8181181
1713,3.994996309,0.028979678,9.460622787,-38.71084213,24.22769928,13.25429916
1714,3.936369419,-0.477744699,8.847900391,-33.9782753,28.26820374,18.72369576
1715,3.163726807,-0.242039755,9.368293762,-38.93494415,25.51084137,20.7362957
1716,3.564050436,-1.362303019,9.625926971,-39.41613388,28.77518463,21.72764969
1717,3.971459627,-2.23231864,9.258936882,-33.33406067,31.83728027,24.64670181
1718,3.754931927,-1.266851544,8.942025185,-21.89817429,35.43690872,25.75106621
1719,3.00100112,-1.232511759,9.414841652,-22.24045563,35.72008133,20.96505356
1720,2.49856782,-1.267970443,9.941458702,-24.16885567,33.86398697,15.87190342
1721,1.978150249,-2.957281828,9.307583809,-7.19483757,23.47973442,12.47102356
1722,2.086759567,-3.761954784,10.14765358,10.40004253,-0.729789495,7.661863804
1723,1.319026589,-2.251106024,13.18361759,13.18034458,-29.74682617,1.784199953
1724,-1.473693609,-2.551270008,17.8281498,-5.948094368,-94.67916107,-11.55912018
1725,-0.567877412,-1.79725945,12.87343979,35.60058975,-198.2342377,-22.67198181
1726,1.090393424,-1.312906146,7.857986927,25.63562775,-229.6010742,-18.93161201
1727,5.02076292,-0.647672594,2.627470493,44.13734055,-223.1400909,-22.75224495
1728,7.679050446,-1.521368027,5.142158508,12.86434937,-208.5281372,-30.76456833
1729,9.004850388,-1.276498318,5.792324066,-4.319428921,-198.5057831,-23.78523827
1730,8.425793648,-1.759773731,6.556188583,-9.099895477,-195.8626862,-29.30295563
1731,7.65593338,-1.332523823,6.659054756,4.524946213,-201.3337402,-36.64856339
1732,7.677753925,-1.033266664,7.684918404,6.242242813,-209.1434326,-39.74699402
1733,8.562251091,-1.578114271,7.920502663,4.056354523,-207.0003815,-45.06768036
1734,8.090884209,-1.860206485,8.5971632,11.79998302,-202.1476746,-47.76493835
1735,7.262403965,-0.898138881,8.903132439,18.43555832,-199.6412811,-47.57395172
1736,6.515382767,-0.01436813,8.718785286,19.28446007,-188.8059235,-44.84973907
1737,6.194875717,-1.454816341,8.292119026,11.16309738,-169.7527771,-37.07075882
1738,6.727128506,-2.389665365,7.593358517,25.55601883,-144.2623291,-33.35000229
1739,7.33868742,-2.846124411,7.174405575,40.53238678,-115.0957413,-34.65110779
1740,7.535953999,-3.40636301,7.133545876,42.00643158,-81.48701477,-35.54134369
1741,7.613506317,-2.154264927,6.804430485,30.45902824,-48.78717804,-38.77453232
1742,7.869490147,-0.507398009,6.730070114,27.28426361,-20.80851746,-34.18690872
1743,7.54297924,0.897908151,6.008334637,11.84290314,-13.38073921,-21.71072769
1744,7.527194977,1.464958072,5.854939461,-0.760274887,-5.499996662,-8.852752686
1745,7.730904102,0.129446849,7.226549625,-23.38747597,6.025136948,2.224653006
1746,7.936584949,-1.599616528,7.590192795,-55.64978027,13.71211338,14.85130405
1747,8.889246941,-2.396325588,6.592773438,-65.39852142,41.63202286,18.14093971
1748,9.248843193,-2.969562769,5.695109367,-88.13145447,93.87343597,25.17658424
1749,7.090630531,-0.395158291,0.212452292,-53.65424347,111.5088043,38.26910019
1750,4.830066681,-0.734406829,0.533368587,0.316407859,130.5031128,37.72404861
1751,4.724277973,-1.04394722,2.803327799,-6.954440594,147.8944702,27.3081913
1752,5.640534878,-0.519476831,4.420712471,-10.36086082,161.2087708,29.60259628
1753,4.943607807,0.885327816,5.33684063,-0.531083763,168.5454865,36.44692993
1754,4.250434399,0.795188785,6.044573307,-5.052088737,168.8691406,42.72968292
1755,4.27630806,-0.576650023,6.378492832,-10.00775146,169.2277222,47.29492188
1756,5.326041222,-1.021173358,6.04999733,-13.91059113,173.9767303,46.7559433
1757,5.717525482,-1.895496488,6.112954617,-19.67366791,178.2618866,44.26338196
1758,5.30239296,-2.180174112,7.534448147,-21.1347065,172.9740601,43.02907562
1759,5.684235573,-1.09247613,8.356588364,-8.841122627,162.1038055,35.78262711
1760,5.665662766,-0.252201438,9.157688141,4.061607361,147.2638245,30.32670593
1761,6.649190903,-0.200992182,10.04880905,5.59951973,131.4359436,24.19412994
1762,7.943879128,-1.215578794,9.550274849,-0.722802401,130.3748169,17.24399376
1763,10.04872322,-1.601982713,9.133633614,-4.781433582,130.5015106,15.89714622
1764,12.42138958,-2.775542259,10.00302219,-50.25258636,133.1117554,6.512475491
1765,12.60077763,-2.069801092,9.613703728,-47.84625626,119.4435196,7.9652915
1766,11.20104218,-0.99421525,11.25679588,-55.05338287,100.140976,12.06649303
1767,10.23649979,-1.263446093,10.0682478,-47.2340889,70.22138214,19.03298569
1768,11.12469864,-2.382456303,7.480499268,-6.722603798,61.82232285,21.96000671
1769,11.14130783,-3.179018021,6.531471252,16.51478386,41.97067261,33.88375854
1770,8.348807335,-2.584891319,6.115380764,0.31603089,20.64311409,38.91334152
1771,5.266112804,-2.407201052,4.097996712,19.84084892,19.01884079,50.35080719
1772,4.02444458,-2.223748207,6.463831902,21.09126472,89.98059082,44.46420288
1773,0.997290909,-2.094645262,9.782815933,18.47589684,157.6455688,36.08240509
1774,1.144628406,-1.581826806,11.14281082,-1.415386915,145.5210571,36.36029434
1775,1.897672296,-5.879806519,9.672605515,-27.84992599,136.8805695,43.56365585
1776,-0.039128482,-6.32023716,8.6158638,-2.018539429,145.7666779,40.75712585
1777,-0.364092648,0.28693974,8.230617523,46.85915375,130.2416229,29.53128242
1778,0.063716248,3.038249254,9.30804348,34.95067215,115.3562546,17.21053314
1779,-1.58909905,1.358174801,9.537867546,19.64760208,94.77961731,19.56840515
1780,-1.476877213,-1.544435024,9.944065094,-3.43466115,86.95881653,14.51324749
1781,-1.286535621,-3.459877491,9.141866684,-12.15221786,86.06654358,13.82621288
1782,-3.04399085,-3.841557503,9.130144119,-2.741410971,80.78446198,12.9577322
1783,-4.159401417,-2.876732588,8.436246872,19.75512123,61.34560394,8.727689743
1784,-3.333758116,-1.241329432,8.010326385,42.07113647,37.27633286,-0.594893575
1785,-3.000766277,-1.017635465,9.195952415,42.076828,16.4329834,1.987047434
1786,-2.824761391,-1.184745193,8.609484673,29.14265251,7.468463421,0.466607273
1787,-2.804522276,-0.983269989,9.390515327,16.13138199,-5.892585278,5.450619221
1788,-3.043678761,-1.535818458,8.815261841,-3.699867725,-18.53059959,4.679766178
1789,-2.771965027,-1.887459278,9.497932434,-9.764303207,-21.53902054,1.988061428
1790,-2.541338205,-1.560371518,9.813211441,-6.884427071,-33.08221436,-0.896704257
1791,-2.659474611,-2.016599655,10.54394054,-12.80565071,-40.79250717,-2.600730181
1792,-2.739319324,-1.965799212,10.26170921,-12.52945137,-45.31858063,-2.657728672
1793,-2.111651182,-2.108301401,10.36876774,-12.02013683,-51.22204971,-2.48215723
1794,-1.685966492,-1.777031779,10.7719717,-16.21448898,-62.7090416,-5.007818699
1795,-1.224477053,-1.868172526,10.68962193,-23.5538044,-65.61442566,-7.756119728
1796,-0.98328793,-2.31334734,10.73345184,-15.09852409,-67.2327652,-5.194963455
1797,-1.004441857,-2.811495066,11.2897501,4.205634594,-66.85101318,-6.955104828
1798,-0.416748405,-3.041407824,11.45831776,15.48192024,-65.31336212,-7.8668046
1799,-0.263999522,-1.874131441,11.08200073,25.6602478,-73.82632446,-9.667935371
1800,-0.334476203,-1.606507301,11.16091347,34.11272049,-75.53449249,-16.50023842
1801,0.720292389,-2.134943485,11.42128181,34.9382515,-68.91718292,-15.7593708
1802,0.59058243,-1.937542915,10.92765141,36.34143066,-72.74724579,-13.38468933
1803,0.495790333,-1.465824842,10.48714638,37.76885223,-75.80556488,-10.54873848
1804,1.049603462,-1.844553471,10.8192873,34.20190048,-73.05845642,-6.43123436
1805,1.307995439,-2.25555706,10.80485725,28.54284477,-64.05026245,-6.697703838
1806,1.929800153,-1.593358278,10.6735239,22.20373344,-54.45585632,-8.786052704
1807,2.161321878,-1.22939539,10.93754864,14.17175007,-50.02977371,-10.11209011
1808,1.965924621,-1.26379621,10.9727335,8.21838665,-50.97314072,-7.572062969
1809,1.948256373,-1.604234338,10.82627106,11.4217577,-46.54104996,-6.137230873
1810,2.205224752,-1.543670177,10.98452377,17.06645203,-40.72405243,-8.143532753
1811,2.316790342,-1.481004715,11.16040802,11.41785431,-31.48326302,-8.179160118
1812,2.512858868,-1.295599341,11.17129421,2.532602549,-23.77888107,-10.07309532
1813,2.371208906,-1.121567965,11.06855965,-1.91759479,-22.11182976,-11.12940025
1814,2.336895227,-1.141094327,10.83536243,-5.555029869,-23.83932686,-9.134348869
1815,2.726185322,-1.69869709,10.49368382,-3.69636178,-22.95432091,-7.793326378
1816,2.656492472,-1.800399542,10.12593174,4.790056229,-18.40543365,-8.004293442
1817,2.335692167,-1.462684751,10.22048855,8.800362587,-21.21417999,-7.695396423
1818,2.44782877,-1.035453916,10.09794426,12.31637192,-23.37822533,-6.095549583
1819,2.882495642,-1.237406492,10.39721584,12.04849434,-21.0108757,-4.614975929
1820,3.06594944,-0.890975237,10.28795624,6.265117645,-16.73147202,-3.958210707
1821,3.040057898,-1.084619761,10.22811222,-0.45202598,-11.92833996,-3.917925358
1822,2.955402136,-0.978551686,9.928305626,-4.490561485,-10.21468163,-1.577243567
1823,2.820870161,-0.98741138,9.903756142,-2.626410007,-8.720043182,0.424607426
1824,3.129059792,-1.119675756,10.00962925,-4.895196438,-6.437312126,2.991896868
1825,3.379253626,-1.129603028,10.15303898,-11.63592625,-1.934419274,2.916404247
1826,3.461635351,-1.20830512,9.584733009,-14.50009727,2.406289577,4.117961884
1827,3.557437658,-0.921443164,9.413637161,-12.18884373,8.657279015,5.421854496
1828,3.642753601,0.270355016,9.393861771,-13.20451641,15.90223598,8.321465492
1829,3.697972059,1.385660291,10.06872749,-28.68840408,14.77149963,11.37852001
1830,4.159534454,-0.258641005,8.920052528,-39.17205048,16.24134064,15.1487093
1831,4.035194397,-1.68026495,9.026872635,-36.99120712,21.16318512,20.12685966
1832,3.163772106,-0.849503517,8.670064926,-40.01181412,28.64494514,22.47565269
1833,2.984743834,-0.93735218,9.33564949,-36.67948914,28.52813911,22.69057846
1834,2.968073845,-0.642931998,9.409927368,-35.91161346,21.86707306,17.71034622
1835,2.731817722,-1.977664351,9.62521553,-28.98451614,8.409477234,15.73458576
1836,2.520272493,-3.487723351,11.46213055,-18.97702599,-6.791925907,14.04417133
1837,1.549930811,-2.630800486,14.21195698,-1.654536486,-13.20502472,-3.553719044
1838,-0.514164686,-2.196919441,15.62033749,-19.93346596,-81.97462463,-8.149981499
1839,-0.763783336,-1.343452692,11.5698204,-20.25795174,-159.1058655,-12.23634624
1840,1.196958184,-2.495987415,8.7602911,59.13684464,-167.9981232,-17.63178253
1841,3.423729658,-3.43200016,7.529719353,56.01953125,-198.1476898,-14.86426449
1842,5.578210831,0.093488008,6.241496086,47.69081116,-205.2597198,-22.04793549
1843,6.808344364,0.813455224,6.712526798,6.762825489,-211.6938934,-25.69849586
1844,7.658798695,-3.813621283,7.378301144,-7.24669838,-215.6907043,-23.95642281
1845,8.161554337,-3.924209356,7.946870327,3.709630251,-219.4630737,-21.38856888
1846,8.462272644,-1.767673612,7.504842281,3.867688656,-223.3922424,-25.94514465
1847,8.551690102,-2.536493301,7.174334526,8.150502205,-225.3123779,-27.22788429
1848,8.219299316,-3.597783327,8.461139679,15.0824976,-218.1504669,-30.70512009
1849,8.220151901,-3.273982286,9.335183144,13.32857513,-215.2283173,-34.54590988
1850,7.764333248,-2.087783575,9.021585464,13.53412724,-208.0522003,-36.56317902
1851,6.245212555,-1.628095627,9.000862122,2.615499735,-194.0244446,-37.03657532
1852,6.488550186,-1.362076163,7.967119217,-0.812472045,-178.6018524,-34.50359726
1853,6.961491108,-1.292830825,7.307304382,3.853632927,-148.0675354,-32.05541229
1854,7.346485138,-1.859398603,7.044558048,-2.184939861,-113.2640762,-31.50345612
1855,7.594802856,-2.483376741,6.868370056,-8.731641769,-69.37559509,-33.10977554
1856,7.745146275,-2.049489737,6.555171013,-2.229008436,-44.3850441,-33.21983337
1857,7.785383701,-1.369105935,6.562370777,4.223358631,-36.42580414,-24.82112503
1858,8.383431435,-0.697484195,7.62351656,-9.043130875,-33.94764328,-10.49035835
1859,7.985299587,-0.595664918,6.404298782,-31.65319061,-30.15476227,-1.630656123
1860,8.480709076,-0.910645187,5.432860374,-29.49504471,-7.804549217,7.859764099
1861,9.309164047,-1.424944162,5.478320599,-44.28827286,21.74430275,15.31219101
1862,9.262071609,-1.959838867,3.714653969,-64.63468933,68.18608093,23.44793701
1863,7.584174156,-2.340732336,1.697006583,-63.09189224,107.1490097,29.29357529
1864,6.118188858,-0.894308805,-0.109963633,-28.74916458,122.02211,33.12774277
1865,4.322841644,0.656743348,0.974972427,-3.24134922,145.9711456,30.26164246
1866,4.738479137,1.31620419,3.880409956,-16.11423302,162.53302,37.08280563
1867,5.14021349,0.969847918,4.453818321,-22.7916584,165.9275513,40.64595795
1868,5.328829288,-1.045483828,5.226428032,-8.877898216,160.2791901,42.30008698
1869,4.766414642,-2.03098321,5.795947075,-0.810420454,162.0120544,39.51678085
1870,4.807353497,-1.079437137,4.878461838,11.93927479,161.51474,31.8166275
1871,5.232923508,-0.452435732,5.510622978,13.33876801,155.966568,26.64098167
1872,5.553852081,0.022530712,6.100773335,7.43777895,151.8842926,21.92318535
1873,5.919494152,-0.247741044,7.620621681,-0.400518149,148.5140991,18.77776718
1874,6.020648479,-1.16181767,7.318955421,-18.0649395,143.9390869,20.17871857
1875,6.562963963,-2.524513006,7.583867073,-14.76148701,139.4415436,19.92794037
1876,7.253463745,-2.428572178,8.402470589,-7.555113316,134.4422913,20.64583397
1877,6.936244965,-1.639236689,8.851416588,-10.16834354,125.2394562,25.91535759
1878,7.27029705,-1.533045411,8.311203003,-29.93232346,128.353302,32.90595245
1879,8.453069687,-2.269021511,8.84705162,-60.1846962,132.195282,33.42644882
1880,11.2580862,-2.813290119,10.24329567,-67.4677124,122.5783463,26.78489876
1881,12.67246056,-2.827440977,10.44699097,-67.08009338,111.7148438,26.81323242
1882,11.85362625,-1.87341392,9.40823555,-69.1687088,99.82958221,26.67115593
1883,10.80011177,-0.53281641,7.703123093,-53.58242035,82.65607452,28.78933907
1884,11.13281727,-2.200095654,8.183316231,-30.72567749,73.05916595,38.30914307
1885,9.967450142,-4.36967659,6.033802032,-18.59559631,49.99682999,53.72011948
1886,6.405957699,-6.247923851,4.317879677,-16.31129265,35.20835876,66.34145355
1887,3.174823761,-5.216052055,5.391330719,-11.29014969,51.93258667,72.72380829
1888,3.211791754,-2.396978378,7.368073463,-0.388543159,92.64446259,66.04131317
1889,1.344049335,-1.258904457,9.709000587,-2.784938812,146.6132202,56.79566956
1890,1.097611427,-4.494768143,11.53070545,-40.27339172,136.6459045,52.08498001
1891,0.563177407,-8.365171432,9.018274307,-34.79345703,132.3002625,45.03750992
1892,1.161079049,-3.64936614,8.5200634,18.14286804,125.1344604,35.91102982
1893,1.055330038,-0.122373424,8.699110985,61.01948166,108.1945038,23.14138222
1894,-0.742668271,-0.805126429,10.02085972,48.86518478,83.60691833,24.81163406
1895,-1.291645765,-1.567756534,9.728587151,25.75279808,72.3610611,26.70862198
1896,-0.952491045,-2.784927368,10.889884,12.38586521,77.74408722,16.01105499
1897,-1.805155039,-3.479394197,9.019117355,5.99698782,65.61489105,9.865819931
1898,-2.196119308,-2.547096491,7.990161419,22.80100822,53.39497375,5.742372036
1899,-3.000323534,-2.697476149,7.502634525,32.75967026,26.83592796,2.899568319
1900,-4.018645763,-2.136375666,7.468560219,43.11442566,6.07657671,-0.612000346
1901,-3.101758957,-1.852567196,8.772977829,24.60442543,-2.447881699,-7.969544888
1902,-0.423797905,-1.785618544,9.190871239,8.734933853,-1.384258389,-7.111619473
1903,-0.537285924,-1.993349433,9.568379402,-4.753520489,-10.85681152,1.839248896
1904,-2.442129612,-3.102070332,9.27397728,-17.70525932,-18.00047112,-0.429814041
1905,-2.809744358,-4.244594574,8.890543938,-27.02789497,-27.91718864,-0.616257608
1906,-2.069454432,-3.822886705,8.914901733,-9.458554268,-37.70770264,-8.92461586
1907,-1.492057323,-3.095581532,8.987051964,4.891172409,-45.59616089,-7.460459709
1908,-0.897355914,-3.547234058,9.61406517,10.72697258,-42.76726532,-1.71042788
1909,-0.407150447,-3.94528842,10.03182697,17.3706646,-45.21286774,1.227293849
1910,-0.373793662,-4.683898449,10.48194885,15.65642834,-45.48656845,-0.959581196
1911,-0.914304674,-5.121948242,10.84914875,17.76832581,-40.64432526,-5.142156601
1912,-0.827574134,-4.437631607,10.80033779,31.01860809,-38.63117599,-10.17839909
1913,-0.44781366,-3.830588818,10.88264656,40.74510574,-44.39309311,-12.71704674
1914,0.030217145,-3.884435892,10.58722496,58.62173843,-49.89352798,-11.28261471
1915,0.039042577,-3.643445253,11.26881504,63.25396729,-48.87831116,-9.29455471
1916,0.303923666,-3.15176487,11.4861269,50.4580574,-50.46099472,-7.713243961
1917,0.725080669,-2.181255341,11.42958355,37.64049911,-51.53736877,-4.208425522
1918,1.071771264,-1.753518701,11.27580357,30.92266846,-54.53961182,-1.206733465
1919,1.105214,-2.017612696,10.90632915,29.87797356,-54.33918381,0.303649098
1920,1.160425186,-2.158988714,11.06298065,29.09205818,-47.99992371,-1.425215125
1921,1.441307545,-1.770648599,10.90701485,24.93974876,-45.62547684,-3.09889102
1922,1.673112869,-1.241861343,10.88519478,26.21544838,-44.0410881,-2.929889202
1923,1.771529555,-1.007234454,10.92118645,28.1010437,-36.7974472,-3.158946991
1924,1.830785036,-1.09943223,11.22615433,21.9787159,-33.40761185,-3.208578825
1925,1.761275649,-1.366929293,11.11504269,14.20237541,-34.06183624,-3.866377115
1926,1.856337547,-1.481578827,10.74832344,8.787652969,-34.31423569,-4.132697582
1927,2.057677031,-1.829492807,10.1809206,13.26284218,-33.04244614,-4.115038872
1928,1.923688173,-1.45661819,9.947440147,22.1852951,-34.61879349,-6.220460415
1929,1.888053775,-1.234817624,10.38610172,22.5586834,-35.0229187,-8.536621094
1930,2.25453639,-1.209141016,10.52216434,18.20562363,-35.35951233,-7.013610363
1931,2.39853549,-1.235858679,10.71899414,17.76636887,-33.52251816,-7.739423275
1932,2.564048052,-1.176610351,10.9880619,15.94482231,-30.83066177,-9.976107597
1933,2.799937963,-1.142991185,10.78423214,11.30897427,-26.5813446,-10.53462887
1934,2.924335957,-1.083175659,10.47558498,12.92847157,-23.56916237,-12.12355804
1935,2.874444008,-1.027459264,10.31194782,14.22157288,-20.61684608,-12.34901714
1936,2.553962231,-0.995424986,10.42806149,11.3672924,-18.75263405,-12.06500435
1937,2.916862488,-1.165200233,10.62775135,9.134274483,-17.94497681,-12.38838196
1938,3.200466633,-1.078395247,10.79897404,3.666949272,-15.60456467,-12.62150002
1939,3.722747326,-0.898404777,10.74991608,-3.582438469,-10.76340103,-11.58610535
1940,3.688780785,-0.33856824,9.981865883,-9.747713089,1.996312737,-10.26187515
1941,3.432789564,-0.632035792,9.64764595,-13.26935863,9.86101532,-7.536820889
1942,3.309747219,-0.642348409,9.314519882,-23.07429314,13.92977142,-4.918272495
1943,3.254223108,-0.74304831,8.777331352,-25.70377731,20.38766861,-1.253150821
1944,3.230415106,-0.726275921,8.929944992,-30.75270081,19.57263565,1.598803282
1945,3.442494392,-0.584124565,9.878882408,-35.73112869,20.84524155,3.405561924
1946,3.370759726,-1.07502234,9.994551659,-54.34796143,18.57847977,7.56697607
1947,3.225827694,-1.646428704,8.153983116,-41.59455109,22.47535324,10.24508667
1948,3.344568729,-2.117961645,8.266430855,-24.43994331,31.62085915,11.06686497
1949,3.260345697,-1.260615826,9.261906624,-20.62654114,35.50071716,7.592983246
1950,3.083633661,-0.250244558,10.3297472,-29.86825371,30.87998581,5.366280079
1951,2.388434172,-0.820579529,10.22738266,-37.57876587,22.46847153,1.549271464
1952,1.779180288,-2.696861982,9.630518913,-39.27730942,10.98040867,-0.919187546
1953,1.669919372,-3.392047405,9.408667564,-20.66316795,-6.241064548,-7.996049404
1954,1.30602479,-1.438398838,11.61903381,-10.04928684,-38.49823761,-10.53809452
1955,0.975025654,-1.326325417,13.10423565,-15.99238586,-84.41614532,-11.84264755
1956,0.486047566,-2.700162649,11.18690872,9.676028252,-143.4852753,-9.703634262
1957,1.951565742,-3.414512396,9.454241753,61.80434036,-163.0617218,-8.006127357
1958,3.749593735,-0.950960875,8.306268692,60.98065948,-191.6779785,-13.47610188
1959,6.470388889,-0.666206598,8.079010963,29.82086182,-205.4829102,-27.74262619
1960,7.930902004,-1.797327161,7.597634315,12.45970631,-204.7210999,-27.30283356
1961,8.215878487,-2.53902173,8.223083496,16.5979557,-202.0814514,-28.05705643
1962,7.926698685,-2.549804449,8.308341026,21.64235878,-204.6598663,-28.24933243
1963,7.528389931,-1.394812107,8.725039482,23.85366058,-205.2109222,-32.90430069
1964,6.828540802,-0.866253972,8.82155323,17.66854095,-210.9859619,-34.72522354
1965,6.493991375,-1.821277618,8.511893272,15.79492664,-214.7957153,-32.60386276
1966,6.431069374,-2.175118208,8.135912895,17.30385017,-209.401001,-36.94494629
1967,5.996677876,-1.639329672,7.606565952,20.84167862,-198.8455048,-38.75047302
1968,5.927577972,-0.877830029,7.640173912,10.01171398,-176.0907288,-36.55441666
1969,6.059448719,-1.30475831,7.296942711,-1.679496288,-154.9182892,-32.42896271
1970,6.438456535,-1.923174143,7.0293293,-4.897541523,-127.1818085,-25.88394165
1971,7.021151543,-1.966174722,6.331609249,1.441314697,-89.06317139,-24.21957016
1972,7.894313335,-1.876288652,6.005727768,10.37552166,-57.33169174,-30.00954628
1973,8.049316406,-1.762112021,6.054745197,13.33008862,-36.66463852,-27.50227737
1974,7.645346642,-1.043980837,6.556264877,12.85451412,-15.40921402,-17.12150574
1975,7.405047894,-0.498964697,6.752372265,15.7262373,-7.67959404,-8.274436951
1976,7.717747688,-1.415955901,6.932202339,18.15577126,-1.509755254,-5.86890173
1977,7.89079237,-1.894999027,6.977142811,3.439985514,10.75432301,0.019702578
1978,7.994831562,-2.095560312,7.790586948,-27.78957176,21.53493118,5.013400555
1979,8.276550293,-1.816539049,7.025028706,-51.78770828,43.2252388,10.17738628
1980,9.011624336,-1.208365083,6.067345619,-80.95788574,75.67221832,17.40327454
1981,8.264358521,0.068417795,2.06977582,-90.96315002,110.5652313,32.04545593
1982,5.838987827,0.448257327,0.611131907,-37.94528198,117.0139389,43.06077576
1983,3.968271971,0.138027713,2.622287989,-13.69261646,131.1947174,44.87466812
1984,4.29227066,-0.998824894,4.218131065,-16.1362648,150.58255,43.12172318
1985,5.371217251,-1.286495566,5.329585075,-15.11116505,163.5189819,45.72167587
1986,5.034747124,-0.433133364,6.575132847,-17.02549934,172.5804749,48.06845474
1987,4.208880901,0.314810306,7.263580799,-22.11720276,176.3123322,48.44644928
1988,4.372801781,-0.451920092,7.169343948,-29.5334549,171.3142395,47.76218414
1989,4.744790554,-1.266477823,6.641349792,-29.45669365,159.0076447,46.63195038
1990,5.104485989,-1.431743145,6.691594124,-22.43306732,148.6782684,41.06205368
1991,5.117037773,-1.457485318,7.118518353,-25.82758141,141.5041809,40.799263
1992,5.507956028,-2.084764719,8.299592972,-38.283638,134.568573,41.05382538
1993,5.799666405,-2.557407618,8.592961311,-37.02566528,121.852478,43.62950897
1994,6.513910294,-3.489332914,9.329192162,-15.29855156,109.4284515,40.93671036
1995,7.03832531,-2.930234432,10.51334286,-12.35102081,108.6922073,34.06962585
1996,6.909790993,-2.000823975,9.588025093,2.120323896,101.5329437,33.13737869
1997,7.947348595,-3.787452221,8.581830978,12.88917446,80.33610535,26.67264557
1998,9.775221825,-4.582791805,8.428477287,20.61808777,48.30580902,20.15534973
1999,11.50397682,-3.427595139,8.678822517,5.457726955,30.16504669,20.95380402
2000,12.56664658,-2.060719967,8.639825821,4.182431221,38.34992218,24.4920845
2001,12.37678337,-1.95092082,8.73535347,-18.53075409,52.01881409,25.51237297
2002,9.819592476,-2.292994261,8.116663933,-16.28549767,39.00517273,29.98169327
2003,7.430854797,-2.140594721,6.966255188,13.22480106,15.13656807,32.61141205
2004,6.154667377,-2.08763051,6.47930336,14.45179939,18.58995247,30.90419579
2005,4.523358822,-2.049084663,5.902454376,7.837863445,29.07743645,34.08908463
2006,2.605601072,-4.05523777,8.524214745,19.00561333,61.85474014,28.94861221
2007,2.773961544,-3.064019203,11.96423244,12.71885872,128.3325043,17.42027092
2008,3.840263367,-3.292942524,11.76922894,9.752411842,130.6664581,16.3854847
2009,1.972144842,-5.562613487,9.672007561,4.020098686,120.5336227,18.74804688
2010,1.085587859,-3.211529493,8.970205307,64.98338318,108.7566528,14.55731201
2011,1.213475823,-0.135374665,9.516652107,69.58436584,91.17108917,8.529379845
2012,0.266809195,0.608605444,9.162203789,55.26702118,64.198349,8.341891289
2013,-1.122866631,-1.231907606,8.756500244,58.5957756,55.79520035,12.57463455
2014,0.018401131,-2.861151695,9.416783333,47.09389496,62.29682922,14.02553177
2015,0.210018292,-2.479306698,9.927747726,24.73447227,68.80672455,12.52454567
2016,-1.796793699,-1.166735172,9.637194633,16.60101318,61.22644424,12.00433636
2017,-2.789218903,-0.477284133,9.087470055,16.79608345,40.97480011,10.47716808
2018,-2.51475358,-0.632049561,8.482815742,21.05546188,23.22613144,9.228354454
2019,-1.769791126,-0.90631175,8.538721085,18.10955048,7.99870491,9.123040199
2020,-1.697076321,-1.562773466,9.051405907,1.080318093,-5.062625885,4.199573994
2021,-1.136960626,-1.51483655,9.287744522,-7.907660961,-6.212906837,2.925099373
2022,-1.215300441,-1.352658749,9.554064751,-7.669686317,-16.03010368,1.483963013
2023,-1.655236959,-1.568844318,9.561830521,-9.886398315,-28.23978233,-3.587780237
2024,-1.136335373,-2.155410528,9.819209099,-10.95591736,-34.73592377,-8.586576462
2025,-0.668398619,-2.318044662,9.792144775,-10.29380989,-41.24242783,-12.36933613
2026,-0.498610228,-2.202135563,10.28531742,-10.45308781,-46.9593277,-13.51978779
2027,-0.028777994,-2.070441008,10.40596581,-4.864709377,-48.95670319,-12.51507473
2028,-0.247752577,-2.136759281,10.86546326,-0.268212676,-53.36574554,-15.09815025
2029,0.243347377,-2.08823514,10.62400723,3.965848684,-60.22322845,-16.66223335
2030,0.801029146,-2.056391954,10.81452942,13.13684464,-67.7191391,-15.19109058
2031,0.831339478,-1.695054173,11.07450294,18.21151543,-78.014534,-14.27903461
2032,1.074962854,-2.172522068,11.28580379,20.96536064,-84.94536591,-16.12294579
2033,1.264084816,-2.657047272,11.40624905,24.96474838,-86.18244171,-19.14567184
2034,2.061618328,-2.756587267,11.19108963,28.80215263,-81.14516449,-23.10015678
2035,2.638218403,-2.35608387,10.7664938,38.12110901,-67.99308014,-26.25028229
2036,2.370932579,-1.975855589,10.53217602,45.78698349,-57.33512878,-25.73226357
2037,2.357855558,-1.43888247,10.70230579,44.75011063,-52.35556412,-22.18155479
2038,2.720227957,-0.877429545,10.93140125,35.83835602,-47.7678833,-19.1435318
2039,3.053103209,-0.794306099,11.0645256,24.15400696,-46.13586807,-15.47366524
2040,3.033658266,-0.888211191,10.76507759,16.60942268,-47.38951111,-12.24123096
2041,3.001842976,-1.066050172,10.29413033,18.71685028,-47.4636116,-13.11139679
2042,3.091409683,-0.999731362,10.18895531,22.24180984,-44.6624527,-15.18662739
2043,3.534888029,-0.657187939,10.67359829,18.39697838,-41.4234314,-14.26755714
2044,3.577961683,-0.320654869,10.66728973,12.19136524,-38.85066223,-13.0949049
2045,3.658831835,-0.185826406,10.5309267,11.27041817,-36.22520447,-10.96748638
2046,3.74732542,-0.109070413,10.4266901,13.46115875,-35.37162781,-9.033268929
2047,3.729476452,-0.320798784,10.42726421,15.25246525,-33.36605072,-8.293759346
2048,3.999742985,-0.337525517,10.66731262,14.12959671,-30.40548897,-7.640036106
2049,4.107621193,0.336262137,10.75784016,8.290473938,-27.9429512,-7.488300323
2050,4.057957172,0.532164216,10.81790829,3.11884284,-28.86008072,-7.965402603
2051,4.280387402,0.089855149,10.73123169,-3.527646065,-26.68732452,-5.665454388
2052,4.619229317,-0.472343504,10.37280941,-12.84226131,-17.82989502,-0.190424323
2053,4.562937737,-0.061854791,9.804553986,-18.98624039,-6.673890591,2.213657618
2054,4.760497093,-0.296014637,9.357112885,-21.83622169,7.155408382,4.289444447
2055,4.763059139,-0.761731207,8.892796516,-20.50420952,17.33292961,6.699763298
2056,4.463516235,-0.612711251,8.962762833,-14.46337318,33.68877029,4.732441902
2057,4.241821766,-0.07753545,9.405042648,-11.33559799,37.89371872,7.415661335
2058,4.347043514,0.602157474,9.811681747,-23.78941154,35.88458633,8.489976883
2059,4.286010742,-0.083682179,9.042464256,-34.74717712,34.80007553,13.51741791
2060,4.397383213,-1.883842587,9.042116165,-30.89332581,42.21776199,18.0702858
2061,4.246228695,-1.612890005,8.856535912,-30.157341,51.93768311,21.11876678
2062,3.840908766,-0.043109432,8.857762337,-30.4878788,54.54608154,20.35837936
2063,3.295391798,0.641180217,9.160094261,-46.02505112,44.85996628,16.66682434
2064,2.749437332,-0.718769789,9.113146782,-59.6414299,33.98371887,16.08824539
2065,2.378483057,-2.1631639,9.842148781,-62.49465942,24.50495529,13.42724323
2066,2.162108898,-2.612787962,10.3105402,-65.37602234,7.909387112,7.485810757
2067,1.432139635,-2.591357708,11.23789406,-58.93703461,-27.71084213,6.416026592
2068,1.501944184,-2.102168083,11.2776947,-51.85341644,-85.02534485,2.69958353
2069,2.51865387,-1.732620001,10.83368015,-15.14617729,-121.803421,-3.675073862
2070,3.942163944,-2.224984884,8.703611374,22.37595367,-132.2615662,-17.40449524
2071,4.652873993,-3.577485323,6.996601582,12.88233757,-172.863205,-23.3093853
2072,5.645889282,-2.397360563,7.502247334,18.82432365,-198.7025146,-32.91871643
2073,6.871016502,-1.478135228,7.927214146,12.7293129,-213.0550079,-35.16809464
2074,7.930450916,-2.355812311,7.608424664,8.849455833,-216.0077057,-32.90989685
2075,8.165247917,-4.664778709,8.468523026,18.80867958,-207.9827881,-33.04008102
2076,7.646391392,-3.774010897,9.420296669,20.68335533,-206.2979736,-35.6931572
2077,7.596111774,-2.209648371,8.930200577,23.53195381,-203.5619507,-40.57209778
2078,7.252975464,-1.091220975,9.1185112,31.15219879,-201.5078735,-31.46417809
2079,7.043405533,-1.650609136,9.296704292,27.53114319,-202.6354218,-23.72240829
2080,6.011428833,-1.824064612,8.844664574,28.04964066,-193.5757141,-24.7224884
2081,6.332187653,-1.822021246,7.978701591,24.32242966,-167.5979462,-24.9978466
2082,6.564730167,-1.416616201,7.247127533,19.67163467,-132.4525146,-23.09776688
2083,6.86162281,-1.007283807,7.051764488,8.647988319,-94.50336456,-22.08585167
2084,7.312614441,-0.782089293,6.620792389,3.512839079,-67.73296356,-24.03839111
2085,7.290185452,-0.296025634,6.048792839,5.751456261,-53.87149048,-19.30681038
2086,7.137104988,-0.564122021,5.976594925,11.59845161,-37.02774048,-12.52436256
2087,7.215212822,-0.499137461,6.176682949,9.40907383,-15.02691364,-6.894229889
2088,7.349779606,-0.695691466,6.353630066,7.062722206,0.297446698,-2.584975004
2089,7.376675606,-0.90520668,6.84421587,-4.514559746,6.08057785,-0.162179649
2090,7.329356194,-0.544544876,7.635315418,-27.21617889,-5.333003044,9.112956047
2091,7.605078697,-0.935687959,6.68739748,-43.93260574,-9.805810928,14.66778564
2092,8.942584038,-1.852190971,6.590832233,-66.88214874,20.42243195,14.22475433
2093,8.903001785,-1.414256573,4.100484371,-89.04890442,71.11995697,19.97359276
2094,7.332837105,-0.496659219,0.971872449,-51.31538773,93.10758209,27.07847214
2095,5.608518124,-1.568283558,1.341898322,-21.63636589,113.9502182,25.16333961
2096,5.208426952,-1.254401326,1.893647671,-7.195999622,127.5737305,31.15628815
2097,5.601964951,-1.159247041,3.565063953,-3.611973047,144.8075256,33.78957367
2098,5.953531265,-0.649080396,4.539242268,-11.78941917,156.5155334,37.78721619
2099,5.655999184,-1.135127425,5.726238251,-17.19286728,162.1989594,43.21604156
2100,5.486512184,-0.738771677,6.727722168,-21.11765862,159.2584229,45.01558304
2101,5.499394894,-0.975123525,6.614964485,-20.88581657,151.2087555,47.32025528
2102,5.609210491,-1.543144941,5.727257729,-26.95580292,145.379837,50.86510849
2103,5.533995152,-2.453686237,5.971863747,-35.21875,145.6976471,54.03190994
2104,5.747133732,-3.121661186,6.84489584,-43.3999176,144.687973,52.38957214
2105,6.526371002,-2.827533007,7.568325043,-44.10860062,137.2665253,46.6487236
2106,6.785136223,-2.664631605,8.056855202,-38.55522919,130.9027863,45.25979996
2107,7.18912077,-2.974455833,8.393734932,-39.2023201,133.5017242,36.1087265
2108,7.054799557,-2.908654928,8.782446861,-29.59990883,128.1548767,20.8686161
2109,7.517129421,-2.637164116,8.876150131,-6.688249588,100.3312759,14.16246796
2110,9.077241898,-3.320870876,9.197827339,4.598706245,76.04772186,19.5699482
2111,11.56365871,-4.125492573,9.171546936,-22.12967873,73.56177521,24.62308693
2112,12.17850971,-4.302903652,8.693198204,-46.71881104,75.66727448,26.72772598
2113,10.79272938,-2.965509653,7.862003326,-32.43159103,63.90877533,33.40660095
2114,9.637373924,-2.523993492,7.723979473,-20.12769318,47.72551346,36.05930328
2115,8.897351265,-3.879341602,6.972020626,-19.84333038,35.23153305,30.39118004
2116,7.378143311,-4.41835022,6.191070557,-8.720701218,37.80210114,37.66295624
2117,5.844691753,-4.772894382,6.778265953,-1.047485352,50.4871521,41.03141022
2118,4.918728352,-4.517429352,11.34181309,5.307115555,127.9394684,40.6206665
2119,3.06959486,-4.07726717,10.83979893,29.89490891,161.5054321,39.2461586
2120,1.498118877,-5.806188583,8.40985775,35.8001976,107.4157562,44.65628433
2121,1.835679889,-8.377301216,9.251260757,29.7009964,122.0799713,41.47254944
2122,2.086538315,-4.176455975,8.171861649,72.75618744,121.4373398,28.25707245
2123,1.406722903,0.146471202,6.847152233,103.64814,105.9074783,17.58620071
2124,0.510157585,-0.498952985,9.221832275,103.5817642,89.10495758,14.84948921
2125,-0.896271765,-1.261952281,7.759352684,85.22384644,70.69165039,15.93433666
2126,-1.206308842,-2.737306118,9.401974678,62.05290604,73.67198181,9.6372509
2127,-0.967031419,-2.146817923,8.516013145,61.02915573,75.01859283,9.44299984
2128,-2.870591164,-0.809866548,8.729389191,59.68333435,60.7203331,8.960233688
2129,-3.071579695,-0.213709056,7.836799145,47.16120529,28.16804886,5.671454906
2130,-2.058789015,-0.247969449,7.325596809,44.86953735,5.607826233,3.672682762
2131,-2.025383234,-0.332138866,8.313130379,36.55276108,-5.731913567,5.112409115
2132,-2.564399719,-0.552212238,9.16247654,19.72019196,-18.10094643,3.161460876
2133,-2.224577188,-0.563909173,9.79756546,0.473900735,-32.13150024,-3.165068865
2134,-1.852864146,-0.250920147,10.05276775,1.289055586,-38.03705978,-6.041791916
2135,-1.096450567,-1.830776215,9.230298042,2.60749507,-58.59071732,-7.957881451
2136,-0.634371758,-3.228142262,10.31271553,-7.821614265,-70.97108459,-9.248178482
2137,-0.233601943,-2.588440418,9.991644859,-1.019383788,-68.8988266,-11.78819847
2138,-0.004142292,-2.710054159,10.69637775,11.00726318,-71.52043152,-9.79490757
2139,0.271568358,-2.537073374,10.90308857,6.934024811,-75.22176361,-8.290367126
2140,0.152424991,-2.241355419,10.84775448,5.255871296,-79.76183319,-9.316005707
2141,0.523079276,-1.715408564,10.88021374,11.31357002,-86.34524536,-9.671002388
2142,0.906221509,-2.109305382,11.34574127,13.63094234,-86.68725586,-11.07795715
2143,1.31687057,-2.064037085,11.4414959,12.16267395,-86.04586029,-12.27459717
2144,1.917122602,-1.493726015,10.48240948,19.13973236,-90.71446991,-15.28644371
2145,2.113765001,-0.802015066,10.22029877,26.78987503,-90.16052246,-15.45610523
2146,2.286243677,-0.597566247,10.85083008,20.03110504,-82.69397736,-14.81212902
2147,2.829496622,-1.121315002,11.53074265,9.575924873,-75.70972443,-17.33828354
2148,3.25838995,-1.647963405,11.78090763,7.492312908,-79.04386902,-18.53953934
2149,3.274880648,-2.127957582,11.61875534,15.38460732,-76.62743378,-19.0227108
2150,3.398621082,-2.101223469,11.2174511,20.51919746,-74.58673096,-17.68992424
2151,3.738033772,-1.586983323,10.74417782,20.29376602,-69.28077698,-19.16254234
2152,4.377623558,-0.56624794,10.46686077,8.698675156,-62.95463943,-20.28015709
2153,4.67422533,-0.506558359,10.04720974,0.317922086,-60.34721375,-18.07348824
2154,4.525871754,-0.857602775,10.11824703,4.664040565,-49.84384537,-15.30704498
2155,4.478509903,-1.124033689,10.42769241,5.788888931,-38.16875458,-15.49263287
2156,4.710762501,-1.085469365,10.50619793,-6.312206268,-31.13251877,-14.50173473
2157,4.925790787,-0.717705667,10.39887142,-14.57514381,-24.8562851,-12.95764637
2158,4.793997288,-0.766862214,10.28611565,-15.15096474,-20.25727844,-11.40428925
2159,4.622554302,-1.052604675,10.28193569,-9.882638931,-18.09938622,-9.917228699
2160,4.469821453,-1.295064569,10.41472626,-7.468749523,-13.79503155,-9.375810623
2161,4.609133244,-1.209353089,10.29765606,-9.061114311,-9.874215126,-8.78599453
2162,4.727401257,-0.321785659,10.04225731,-14.34009838,-7.864791393,-6.173710823
2163,4.738133907,0.573784173,9.843920708,-18.54121208,-8.302484512,-2.434400797
2164,4.614307404,-0.534384847,9.854649544,-30.89434242,-6.424828053,-4.063802719
2165,4.675249577,-1.961160898,9.910560608,-41.5592308,-3.427000284,-3.139162779
2166,4.791137218,-2.208283663,10.21362019,-35.83076477,0.019305658,0.556880236
2167,5.439668655,-1.392606378,10.03918076,-28.88417053,4.323046684,-0.716261268
2168,6.007660389,-1.212105751,9.858581543,-35.97837448,15.23463631,-1.356289268
2169,5.784989357,-1.881806254,8.648663521,-42.65195084,39.10324478,3.951920509
2170,4.679737091,-1.66614759,8.572706223,-39.73418427,55.16918564,9.191634178
2171,4.28847456,-0.000531327,8.326816559,-43.12352371,59.86021042,12.49382782
2172,4.21339035,-0.364906251,7.885889053,-57.98405838,62.617836,17.54609108
2173,4.143028259,-1.341339707,7.751359463,-58.59996414,66.81302643,25.28427315
2174,3.509191036,-1.679941535,7.588878155,-59.97275162,73.61114502,29.58684921
2175,2.564357996,-1.828647017,7.621693611,-62.44762802,59.43582916,23.64761543
2176,2.102630615,-2.425374508,8.148079872,-57.25276947,31.93825531,18.47608948
2177,1.884843826,-3.002726793,11.20790768,-46.49965668,4.07613945,10.21917725
2178,1.696336627,-1.368832707,12.91103363,-17.66635704,-45.36808014,-5.612276554
2179,1.413560152,-2.166279316,8.298659325,61.12117004,-120.9445496,-14.96335793
2180,2.743546009,-6.830043316,6.179365635,91.03735352,-160.7532196,-13.20218372
2181,4.609936714,-2.369290113,7.829319,63.91137314,-179.6012878,-22.18035507
2182,7.089983463,0.056950904,8.168012619,64.35645294,-196.7187653,-24.88547707
2183,8.508162498,-0.748018146,7.47570467,41.62049103,-201.7876129,-25.60298157
2184,8.890638351,-2.472656012,7.755807877,29.50340462,-196.9988251,-29.57352448
2185,8.045143127,-2.616201878,7.816849709,43.16975021,-193.6545258,-34.81579971
2186,7.53381443,-1.502491117,8.35095787,43.52511978,-197.2984619,-41.18395233
2187,7.143724442,-0.9504354,7.885323524,40.2064209,-198.2986145,-41.54742813
2188,6.886730194,-1.234110951,7.961761951,26.58082581,-192.0869904,-41.00935364
2189,6.992871761,-1.322541356,8.151006699,15.3077755,-192.154953,-40.80721664
2190,6.327421188,-1.796453238,7.650440216,10.38495064,-186.4703064,-37.14773178
2191,6.905012131,-1.990187526,7.411399364,8.103309631,-172.0157166,-33.57608032
2192,7.094632149,-2.449486971,7.370521545,14.91606998,-142.8143463,-31.13792419
2193,6.453495502,-2.34929204,7.431596279,19.92175102,-111.9899445,-31.97662354
2194,6.627659321,-1.920972586,7.214894295,24.78444862,-81.73669434,-33.49069977
2195,7.065886497,-0.911561131,6.706834793,25.57861519,-59.56780243,-29.44551277
2196,7.74042654,-0.702670574,6.237412453,14.83263683,-43.48664474,-23.11968613
2197,7.689064026,-1.325346708,5.993303776,10.80322456,-25.4885006,-13.75210762
2198,7.595410824,-1.180499554,5.820258617,11.79547024,-3.723257065,-8.150479317
2199,7.929929733,-0.764964998,5.860111713,14.09331989,19.63631821,-2.83411479
2200,8.719399452,-0.360291004,6.37005949,1.581071496,32.66850662,5.907290936
2201,8.787730217,-0.630803227,7.223163605,-13.53322792,47.23769379,13.59068489
2202,8.313672066,-1.157967448,5.26510334,-21.59245872,61.36370468,22.94842339
2203,8.668232918,-0.329911619,4.070521832,-38.10486603,99.01203918,30.38784599
2204,7.953168869,0.557285905,3.763437271,-67.90441132,131.9432526,33.20447922
2205,5.946938515,0.40795207,1.502147555,-42.80469513,131.1507721,39.27492523
2206,4.354759216,-1.042107105,3.624798059,-15.70741844,142.2513428,43.16500854
2207,5.37664938,-1.441206455,3.750355005,-7.589262962,151.4627686,42.02483749
2208,6.233808994,-0.237294167,4.642189503,-3.4790411,165.1031799,42.58565521
2209,5.570692539,0.388743222,5.864404202,-17.94223595,173.7294159,49.21258926
2210,5.065487385,-0.472718328,6.553557873,-33.94146347,174.5918427,51.83016205
2211,5.384250641,-1.559013128,7.150192261,-30.67409897,166.9151917,51.58995056
2212,5.452623844,-1.942110062,6.734226227,-16.85096359,157.2559662,49.01525497
2213,5.863283157,-2.201070547,7.363536835,-4.770942211,147.6711426,47.09414291
2214,5.652411461,-2.065049887,7.858291149,3.287452698,144.5682983,46.61611557
2215,5.460635185,-1.7710253,8.359414101,10.26921082,136.8650513,40.42915726
2216,5.559206009,-1.26204288,9.048434258,13.59168434,119.9690628,38.06865311
2217,6.526927948,-1.178953648,9.63341713,10.53300095,100.7485809,37.1770401
2218,8.210786819,-2.369872093,9.304317474,6.56396389,84.88019562,31.82788658
2219,9.660282135,-2.910806656,9.542276382,-13.91776752,73.35034943,23.81086731
2220,11.25572014,-1.44928062,8.595874786,-24.01403999,65.96407318,22.967556
2221,12.26871872,-1.975903988,9.718955994,-28.98049545,74.85632324,22.1128521
2222,11.16236496,-2.848212242,8.770296097,-30.70498276,65.52046204,20.84383965
2223,8.852004051,-2.331498146,7.631258011,-14.40572453,51.00187683,20.62205315
2224,8.291104317,-0.972590983,7.838357449,-11.8452816,33.51020432,19.07789421
2225,8.331213951,-0.282899946,6.49492836,-11.08226871,24.0390892,21.75145721
2226,6.606414795,-2.978253603,5.719766617,-12.39106464,19.46731186,32.84411621
2227,4.82825613,-3.882806063,7.280695438,-22.37088013,53.54620743,28.18981934
2228,2.396702766,-3.268926859,12.30393791,-16.50632477,136.1548157,22.94544601
2229,2.809808254,-2.698045492,12.65095043,-18.26573181,137.9993591,22.67664528
2230,2.778070688,-5.149884701,10.68341732,-26.43324661,137.9327393,27.55991173
2231,2.245826244,-5.443491459,9.286855698,5.744549274,136.2642365,25.48586464
2232,1.97641468,-1.623009682,7.348040104,34.7971077,116.2477188,21.69140816
2233,0.817371011,-0.579655051,7.37926054,37.3290863,92.81246948,19.20986748
2234,-1.308124781,-2.489851475,8.599280357,24.92051697,74.13986969,21.74026871
2235,-0.42642498,-2.86132884,10.15120983,17.22755814,73.75511932,14.32634735
2236,0.27054584,-3.202124357,10.10939503,0.283026665,78.85731506,10.92504597
2237,-1.293183088,-2.926002979,9.375300407,2.822455406,70.96916962,8.819917679
2238,-2.467886209,-2.053434849,7.79174614,10.74757385,52.97103119,9.631552696
2239,-2.432627439,-2.013909101,8.387598991,7.774943352,34.81515121,5.368734837
2240,-1.581349015,-2.108948231,8.722341537,6.323050022,26.81822205,1.51115346
2241,-2.096334696,-1.915793777,9.322770119,11.41295624,15.54177952,-2.266400337
2242,-1.906435609,-1.681482434,9.313529015,8.300362587,5.543460369,-4.365641594
2243,-1.426277995,-3.106709719,10.25117302,-4.282078743,-1.018725872,-5.869028568
2244,-1.089866877,-3.279870749,8.880730629,-4.175385475,-12.41662502,-8.415611267
2245,-1.853474021,-3.103498459,9.67345047,0.936466515,-24.20752335,-9.773836136
2246,-2.586225986,-2.336131811,10.08226871,5.206456661,-33.28263855,-10.69466209
2247,-1.51023531,-2.364526749,10.05160427,7.320071697,-43.25772476,-8.970291138
2248,-0.850362718,-2.665953636,10.20693493,11.34260082,-51.922966,-11.86932564
2249,-0.569303215,-3.051845789,10.66903496,20.80811119,-55.11034775,-14.16714668
2250,-0.420028687,-3.365698576,10.63133717,26.75467682,-58.36307907,-14.26991653
2251,0.024082236,-3.324008942,10.77054882,36.46575928,-58.15426636,-15.25453281
2252,0.185283631,-2.804595709,10.57151318,47.23970413,-64.52375793,-16.74839401
2253,0.235567987,-1.877357006,10.41359711,51.42487335,-66.99315643,-18.73292923
2254,0.305261135,-1.395261884,11.0657959,44.5833168,-62.52870941,-19.33795357
2255,0.888728797,-0.999898553,10.83208466,32.38422775,-59.05950546,-23.21183014
2256,1.211784482,-0.605517685,10.63312435,29.9657383,-72.18372345,-22.91615677
2257,1.127307415,-1.232753634,10.73421669,29.51902199,-78.99195099,-20.05008316
2258,1.146710396,-1.558295608,10.6384058,30.07935143,-85.95606232,-17.90130234
2259,1.482288837,-2.08990407,10.85207558,25.56341171,-94.38288879,-19.09017563
2260,2.126731396,-1.93804729,10.86253548,20.42427635,-95.88210297,-20.03951263
2261,2.371567249,-1.542039633,10.62571716,19.53695297,-94.50976563,-22.21606255
2262,2.993355513,-1.179855585,10.32776833,21.08960533,-87.47110748,-21.99583054
2263,3.42431736,-1.078054786,10.41618252,18.06050491,-81.7257843,-18.3170414
2264,3.58975935,-1.069714308,10.20744133,11.4858675,-73.7231369,-16.90250969
2265,4.136640072,-1.472468853,10.31767178,8.308042526,-63.17008972,-17.97457123
2266,4.560137749,-1.503277898,10.41425228,4.892492771,-51.47621155,-16.85667419
2267,4.56662035,-0.861732602,10.32112503,4.092898369,-41.05236816,-14.23407745
2268,4.261620522,-0.797923505,10.20373821,3.76668334,-32.73158646,-12.01229858
2269,4.261852741,-1.130365849,10.27816772,2.155815125,-29.22444725,-9.270962715
2270,4.325196266,-1.48169291,10.35091877,-0.637495458,-27.20457268,-6.811364174
2271,4.423350334,-1.657727599,10.4443779,-3.260092735,-21.92280769,-4.203128338
2272,4.658246994,-1.110360742,10.27524853,-5.195361614,-14.95022392,-2.018154621
2273,4.608764648,-0.649971008,10.02680111,-9.318357468,-4.81988287,0.036792655
2274,4.931536198,-1.200340152,9.690974236,-14.67409325,6.058260918,3.592306137
2275,5.34982872,-2.264559507,9.371552467,-14.19130039,23.41516876,5.787641048
2276,5.244536877,-2.582946539,9.355358124,-15.41664886,43.76404953,14.47577667
2277,4.006924152,-1.297421694,8.552765846,-18.46145439,54.73687363,18.02449226
2278,3.614667892,-0.113761611,8.298505783,-9.126586914,58.70026016,16.06247902
2279,3.724919081,0.218788266,8.646567345,-20.90467072,60.83685684,17.53735924
2280,3.728629827,-0.914860189,8.996135712,-32.73372269,61.2014122,17.67877579
2281,3.017134428,-0.488062322,9.557296753,-34.4106369,57.70027924,16.15115929
2282,2.439768791,-1.300391078,9.49568367,-44.55036545,44.13031769,18.90350723
2283,2.37422514,-1.888158202,8.505343437,-40.69815063,29.5858078,19.04457664
2284,2.560302496,-1.303984284,9.148550987,-37.72001266,28.29073906,18.90674973
2285,2.925331831,-1.707714319,9.652207375,-46.23627472,18.95256042,17.37610817
2286,2.977704048,-2.692292213,9.586091042,-45.16776657,14.52469444,16.57795334
2287,2.478863478,-2.306491137,9.278028488,-42.21735764,4.184453011,14.84005165
2288,2.358230829,-2.605250359,9.912509918,-41.10621643,-11.92322445,6.171425819
2289,2.075413942,-2.133951902,11.44883728,-32.66946793,-33.94862747,1.21398747
2290,2.061755657,-0.487194419,12.80236816,-27.38049316,-73.31472778,-4.765428543
2291,1.967393637,-2.640669346,12.19963932,-0.902908206,-130.1272583,-10.06731033
2292,3.038545847,-3.2008605,7.243348598,64.33468628,-165.0011292,-12.4766674
2293,4.859297276,-3.037778616,6.750043392,57.49405289,-185.8274231,-21.97163963
2294,6.112128735,-1.577103138,7.240167141,39.58964539,-203.2605896,-33.01551437
2295,6.592772484,-1.884947062,6.766893864,18.17205238,-211.0913086,-34.75122452
2296,7.35274601,-2.365429401,7.154459476,22.34107208,-214.3981476,-36.07749939
2297,8.315481186,-1.750730276,7.43956852,32.42090607,-219.9073029,-36.71424103
2298,8.56673336,-1.025648475,7.489673615,40.35254669,-224.1237946,-31.73917961
2299,7.987980843,-1.243968129,7.195344925,49.17052841,-221.8863678,-28.04026222
2300,7.724054337,-1.082077622,7.974695206,49.65724564,-212.6864471,-28.03498077
2301,7.44960928,-1.252958059,8.678598404,41.28969193,-209.3813782,-26.37828255
