PacketCounter,Acc_X,Acc_Y,Acc_Z,Gyr_X,Gyr_Y,Gyr_Z
518,7.451266766,-0.29756707,11.75495815,-1.933080196,-157.1470337,26.52554131
519,-3.31599021,0.331435293,12.06574059,9.319244385,-181.4480133,26.97366333
520,-7.678077698,-0.173337236,12.45648861,11.57250404,-127.806076,20.15361214
521,-3.97009325,-0.867299974,10.83019829,-11.63188362,-130.6560364,22.88776016
522,-7.421900272,-2.183712482,10.49143314,-5.603990078,-227.9204712,0.786684513
523,-0.054142416,0.486709476,12.72687244,44.58425522,-99.66042328,14.01871204
524,-4.529573441,-1.917512178,8.563274384,47.01670074,-205.5892487,-67.71390533
525,2.11007762,0.179467648,12.6231575,74.56565094,-145.9535828,-33.49911118
526,2.589080334,0.209176451,11.97261047,84.27331543,-104.6464157,-23.42916679
527,2.619716167,0.53176719,12.34653664,57.16290665,-90.86828613,-27.3918457
528,2.906564236,0.219298095,12.97632313,46.50878143,-82.95563507,-3.842878819
529,0.732161999,-0.518249989,11.89131069,26.0178299,-68.13644409,2.549881697
530,2.498291492,-0.827058554,11.16173935,25.10068321,-56.62379074,4.860510826
531,1.216901302,-1.001829386,11.0977335,30.1609993,-52.19023514,2.110174179
532,1.107516885,-0.133155152,11.10972023,38.16730499,-48.64888763,-0.111403935
533,2.580721855,1.079780817,10.73263359,45.85845947,-49.72215271,4.729730129
534,3.133052111,2.020819187,9.951352119,44.91107559,-60.99627304,8.524202347
535,2.549479246,2.332809448,9.740781784,34.37112427,-62.59897232,11.60391998
536,2.538721323,1.240163803,9.722099304,25.56816101,-55.50250626,12.70790005
537,3.393864632,0.319295973,9.967722893,25.02802849,-47.48249054,13.55194187
538,2.719128609,0.94050914,10.3281374,20.44729424,-42.04720306,9.455286026
539,3.499142885,1.380547643,9.585383415,18.5048542,-27.86660004,6.266339302
540,4.19910574,1.214992166,8.938768387,20.74789619,-13.21402454,6.248501301
541,3.110194683,1.299642324,8.684908867,28.25643158,-4.927244663,6.903187275
542,3.36144495,1.822346568,8.066541672,38.18270874,13.30951023,3.355961323
543,4.107132912,1.884377718,8.196576118,31.90899467,16.53070259,-1.01953721
544,3.555119991,2.070484638,8.537463188,4.370660782,9.596896172,0.085283905
545,2.92267251,1.723093033,9.045545578,-2.937138557,13.38003826,0.80979085
546,3.227335691,1.382305503,9.162369728,-3.199162245,11.08832073,0.971554279
547,2.895528316,1.222906232,8.543559074,-16.6191597,9.724449158,1.58983326
548,3.007025957,1.152739286,8.306573868,-20.4334507,3.247528791,2.825417995
549,3.066288948,1.060152769,8.466477394,-17.07852173,-1.166461229,5.48687315
550,3.586632252,1.455961347,8.899267197,-19.07801247,-5.405548573,7.688942909
551,3.254634142,1.333583117,9.506942749,-17.21734238,-5.626760006,11.02151394
552,3.230629683,0.707577169,9.376935005,-20.76713753,-5.494716167,9.89658165
553,3.625037909,0.356024176,8.62135601,-22.25987434,-0.91747427,8.656622887
554,3.50346899,0.461575031,8.638012886,-20.37139893,-3.898855686,9.976420403
555,3.432261467,0.882950008,8.682910919,-15.96876431,-3.01906848,9.087883949
556,3.296359539,0.855515897,8.710097313,-8.686904907,-5.107002735,10.12455273
557,3.560642958,0.478627264,8.844512939,-3.25048995,-2.188932896,11.44300461
558,3.559588909,0.372229218,8.519128799,0.200137705,-0.672801018,10.32125473
559,3.681732655,0.457042843,8.42678833,4.843606472,-2.864403486,8.928717613
560,3.242496014,0.3728787,8.504024506,3.476399183,-1.5470649,5.772347927
561,3.350512743,0.301368445,8.403264046,0.298080623,1.08646524,1.914946198
562,3.669625282,0.597334981,8.464827538,2.605349302,0.115462042,-1.516406178
563,3.515134096,0.726004958,8.955079079,8.270814896,-0.656754553,1.123590827
564,3.690502882,1.166699052,9.532571793,0.096418999,1.232739091,3.945482254
565,3.821122646,2.061154604,8.837304115,-10.75294018,-2.747366905,2.938200712
566,3.563402653,1.969994903,8.420121193,-11.04748154,-6.997342587,3.64999795
567,2.949705124,1.453271747,8.760292053,-6.440514088,-9.516550064,3.29206562
568,3.554983377,1.290380359,8.795436859,-8.010501862,-16.21051979,1.945517063
569,3.990732431,1.051270604,8.784399986,-8.795696259,-23.8295784,0.200432643
570,4.110281944,0.673254788,8.79146862,-8.680009842,-28.03918266,-2.424588442
571,3.92988348,0.060712054,8.761343002,-4.045513153,-29.36458778,-1.911058784
572,4.391586781,0.102319412,8.627429008,-5.464646816,-29.02326775,-3.462866783
573,4.343567848,0.780716598,8.601106644,-4.560790062,-34.67028809,-2.037902355
574,4.008633137,0.654137611,8.477578163,-9.665764809,-37.78735352,0.85526371
575,4.206008911,-0.3652381,8.620972633,-8.552820206,-42.00209045,0.947727203
576,5.056268692,-1.104093194,8.485579491,2.138819695,-49.33608627,-0.504196703
577,4.962369442,-0.376719952,8.385585785,10.80021858,-53.14517593,0.192891225
578,4.433198929,0.442882866,8.329999924,7.924645901,-51.79006195,-0.780228019
579,5.335977554,0.345416397,8.095913887,1.534573078,-50.65745163,-3.079897165
580,5.731014252,0.15050824,7.816226959,-10.57859707,-53.22553253,-2.428538561
581,5.834415913,0.269008428,8.098166466,-21.13061714,-57.0436821,-0.701803625
582,6.211477757,0.487741172,7.94512558,-28.56159019,-61.91546631,2.864852667
583,6.157780647,0.629083455,8.081361771,-1.460544825,-70.35939789,0.775578856
584,5.481369019,0.445951253,8.149895668,18.57873726,-89.7387085,3.300153494
585,4.62266922,-0.52588737,7.731918812,24.44878387,-105.782814,10.28375149
586,5.325271606,-0.472953916,7.525945663,15.49692631,-105.8529358,8.634800911
587,6.961064339,1.149863243,7.146416664,10.55889034,-94.31462097,7.935529232
588,7.203392029,0.994443238,6.757424831,20.42396736,-72.25654602,9.469668388
589,7.090713501,0.678536534,6.788043976,21.94857216,-58.57160568,9.235480309
590,6.275773525,0.306762487,6.780508518,27.30064201,-51.46529388,9.141194344
591,5.182260036,-0.682177365,7.52223587,29.68518829,-45.97835159,9.554542542
592,4.197301388,-0.883374095,7.735187054,30.67427444,-37.66244125,6.684919834
593,3.966721535,-0.094997704,7.690865993,28.39553261,-29.70132065,-1.659104466
594,4.008335114,1.041882992,7.434035778,26.90878296,-21.83120346,-8.611303329
595,3.708572626,1.289609432,7.136061668,16.69351196,-5.803711891,-10.31458855
596,3.652053356,1.437889099,6.526183128,11.19030476,13.42545128,-7.523656845
597,4.662035465,0.981973708,6.102663517,1.942710519,30.88451767,-2.732884169
598,4.547308922,0.459776551,5.613219738,-8.631057739,49.50740051,-0.356352657
599,3.475841284,0.726966739,6.009441376,-20.96495247,60.06245804,-0.34642309
600,2.729228497,0.803479671,6.703050613,-36.85600281,74.55974579,-1.899644256
601,3.824986458,0.041455012,7.031961918,-37.6664772,92.66280365,-0.071686074
602,3.556528807,-0.736733139,7.327056408,-34.78188705,104.6989594,-0.423050284
603,4.092394829,-0.933223605,7.30192709,-35.0186882,108.2405396,-7.12843132
604,3.416676044,-0.391315222,7.65847826,-29.36643028,113.4994583,-11.89785385
605,2.776583195,0.262578487,7.458508492,-28.75956726,121.9775925,-6.888783455
606,3.490657091,0.493278116,7.828508377,-23.6862812,128.6749115,-3.431828499
607,4.452352524,-0.106085524,8.075166702,-18.89403915,123.2664871,1.077322841
608,4.036388874,-0.248385012,8.110486031,-10.95372391,119.5114136,0.701343238
609,4.076081753,0.118941382,8.739075661,3.989554882,118.5334244,2.915574074
610,4.74700737,-0.009457133,9.331994057,0.445000798,108.8548203,2.559916735
611,5.142222404,0.806786239,9.037394524,6.265085697,93.62284851,1.43390727
612,6.111839294,0.580631196,10.04915428,13.0547657,76.79171753,3.889704943
613,7.053427696,1.249639869,9.903942108,16.02553749,60.92561722,-0.110232204
614,8.458441734,3.000588417,10.91226768,12.60303593,52.04401016,-5.995718479
615,9.745016098,2.56893754,12.42333698,3.230401993,45.99930191,-11.4385376
616,10.82401943,0.724822402,10.9789114,14.82122517,26.25901413,-10.26072216
617,11.74755669,-0.728447795,9.137691498,3.997774124,15.47874069,-0.74715507
618,10.58276653,-1.247812033,7.71580267,-1.618145227,29.9666729,-6.264342785
619,9.759893417,0.567619741,8.353377342,-11.29862213,72.17153931,-19.31791306
620,10.20635891,2.580897093,6.154528618,-24.13584137,92.21605682,-16.2739296
621,10.05490017,4.504813671,2.800152779,-13.06644535,77.73911285,-6.001732349
622,7.928489685,3.287807941,1.557153106,23.3865509,46.72540665,20.40509796
623,5.340099335,-0.506386757,3.526809216,2.101575613,19.26301193,28.73881721
624,2.921195507,-0.817433417,5.068020821,7.607030392,-4.633379459,31.00409698
625,-0.969727933,-2.189496756,9.061168671,-21.5168972,-13.68263149,31.43177986
626,-5.663455009,0.667177498,10.94345951,-65.92671967,-13.39467621,23.17721558
627,-4.569619656,0.787177682,11.13897038,-44.36628723,-5.914340973,18.27771187
628,2.589828968,-1.184611201,11.75935364,-31.29883003,-1.474523425,17.9270134
629,5.024874687,-0.153917551,11.276968,-13.13753796,0.782354116,18.51108551
630,4.385336876,2.142349005,10.93822861,-12.06254196,2.923566103,16.71121025
631,3.513413429,2.450648785,10.77232552,-36.01222229,1.572511911,8.178494453
632,2.058281898,1.261987686,10.47055721,-54.32437897,3.812899828,0.727139354
633,0.430745214,0.114356346,9.972700119,-59.37292862,5.684029102,2.464600086
634,0.453581661,-1.203605533,9.489005089,-56.80382919,4.892337322,0.317870021
635,2.240423918,-2.053993225,9.00696373,-51.5509491,4.519889832,-1.746693611
636,2.790466309,-2.333513737,8.483353615,-34.67152405,6.892882347,0.018787
637,2.449244738,-2.706391096,8.021538734,-2.246317625,5.752844334,2.452378035
638,1.764472961,-2.103935242,8.337946892,10.15077686,3.597612619,1.600743055
639,1.558614731,-1.249383807,8.348830223,11.81033039,-3.883841515,3.464504004
640,1.834172368,-1.25009799,8.417682648,12.77178288,-6.568849564,3.719709873
641,1.622257471,-1.262933135,8.877293587,12.33147335,-6.774339199,3.78790307
642,1.575238466,-0.710799932,9.404576302,10.13217258,-6.970878124,4.406462669
643,2.18360424,-0.865727246,9.911600113,6.433631897,-10.04381371,5.460783958
644,2.292681217,-1.762784123,9.833389282,3.784997225,-13.24038887,9.496019363
645,1.859612584,-2.497297525,9.503315926,14.93008709,-18.54591179,10.23525524
646,1.85738194,-2.128293037,9.784864426,27.68045616,-30.9871006,5.482829094
647,2.010613918,-1.05081892,9.777039528,37.77640915,-39.37697601,-0.966896117
648,1.938406944,-0.520494342,10.31141281,46.3636322,-47.0141449,-3.317709208
649,2.863725424,0.090448126,10.75075245,56.28225327,-55.66973877,-6.232470512
650,3.628665447,0.282416701,10.52442932,54.06762314,-50.37855911,-6.107408524
651,3.609325647,-0.427160501,9.880152702,43.47703552,-46.39634705,-5.307814598
652,3.908389091,-1.097458005,9.865405083,55.69854736,-45.58043671,-7.223356247
653,4.598598957,-1.021830559,9.636602402,68.68450928,-38.17886734,-13.37403965
654,4.36234045,-0.569284678,9.730489731,67.31400299,-33.40717316,-20.49706078
655,4.521493912,0.128741145,9.511668205,71.20191956,-25.66314316,-23.69030762
656,4.560127258,0.979227901,9.481825829,78.76681519,-17.57881737,-22.0533371
657,4.33590889,2.025306702,9.294587135,79.22675323,-12.89629745,-19.63540268
658,3.978283644,2.702481747,9.176350594,59.6267662,-15.85132599,-13.86581516
659,4.056405067,2.053864241,8.552584648,43.75919342,-20.23547745,-10.22614288
660,4.4641366,1.788774729,8.098487854,37.16777802,-24.97598839,-7.016464233
661,4.672209263,1.775618911,7.942933559,25.40083313,-28.11998558,-3.495785952
662,4.77835989,1.960300922,8.103768349,13.90595055,-31.48675537,-5.256165028
663,5.014510632,1.560266852,8.016278267,-0.368869334,-34.80209351,-6.476270199
664,5.192326546,0.493419826,8.081302643,-6.521100521,-39.62815857,-4.349617958
665,5.377990723,0.664783776,8.824465752,-4.172109604,-50.44837952,-3.273428917
666,5.64190197,1.348636389,9.478977203,4.024202347,-66.82661438,-2.525074005
667,6.023471832,1.30160737,9.345069885,6.332997322,-82.9786377,1.622885823
668,6.27679491,1.138162255,9.204124451,-2.516082048,-92.57263184,5.386731625
669,5.760721684,1.182234764,9.161383629,4.48186779,-114.737114,4.933299065
670,5.598435402,1.249950051,8.900257111,31.35797882,-123.8241882,2.988386154
671,6.017579079,1.119894147,8.174040794,39.11087418,-115.0504913,3.32575202
672,7.036242008,1.323243856,7.932017803,17.19743538,-105.7946014,5.077885151
673,7.49676609,0.75536865,8.153672218,8.285533905,-100.6186752,8.380496025
674,6.172702789,0.463991165,8.71091938,5.843321323,-85.58972168,11.90904331
675,5.011518002,-0.267415106,9.469620705,-3.185049534,-67.9885788,8.631380081
676,5.300700188,-0.848916054,8.99401474,-15.62711811,-56.47407913,0.597077668
677,4.590196609,-0.306831539,8.212094307,-11.53969479,-51.91004181,-3.313465118
678,3.408753872,0.730126619,7.738872051,-8.041547775,-46.60789108,-2.441492081
679,2.850685596,1.919537306,7.282484531,-11.64396477,-42.38942337,-4.373148441
680,3.386753798,2.762325287,7.102290154,-13.42721176,-35.96058655,-1.924887538
681,3.485088587,2.632455826,6.859241962,-16.16722107,-27.02567482,1.783341765
682,3.648940802,2.146478176,6.354702473,-16.34741974,-10.04133224,6.110885143
683,4.036772728,1.681013942,6.091865063,-16.63404083,-0.460587412,9.505756378
684,2.660367489,1.379924059,5.927502632,-21.71832466,13.34937286,9.544122696
685,2.530131578,0.978889346,5.846156597,-29.5847187,29.74447441,5.810994625
686,2.873368979,0.730078936,5.566509247,-30.72581863,44.83780289,3.565043211
687,3.18897438,0.53116554,5.633318901,-26.28301239,59.1116066,0.474744797
688,3.496373892,0.968745351,5.710935116,-17.8285656,70.13941956,-1.169350266
689,3.998600721,1.118376136,5.580390453,-15.85238743,75.61708069,-2.644957542
690,3.548856258,1.389150858,5.618873596,-14.56019783,80.18599701,-7.480027199
691,3.802180052,1.45387876,5.788459778,-18.15441322,88.02658081,-7.576280594
692,4.266197681,0.83743757,6.228521347,-20.3935833,91.12036896,-8.081151962
693,4.936993122,0.591191471,6.744179249,-16.43245888,93.496521,-4.835364342
694,5.641875744,0.931512296,7.503207207,-4.598674774,92.22575378,-2.18662858
695,5.608369827,0.45075798,8.442533493,-3.071718931,91.24585724,1.795125484
696,6.223431587,0.069964357,8.292721748,-4.551812649,91.76185608,0.860138416
697,6.933511257,0.092174098,7.957008839,-7.021694183,76.43813324,2.311081886
698,6.604050636,0.250258654,9.455659866,-14.01548386,59.15166473,4.742637634
699,8.01674366,0.41094923,10.01960754,-21.7780056,47.91080093,0.991080284
700,9.874372482,1.04450798,10.27517319,-28.14775658,44.2166748,-8.618124008
701,10.90141487,1.760302544,11.63179684,-31.92178345,57.61800003,-21.37423515
702,11.42147255,1.853981495,11.17115211,-18.33625031,57.93746948,-28.51665688
703,11.17996788,1.910312653,10.27789116,-11.95162964,46.36536026,-18.37773705
704,10.64344025,1.283749223,9.807729721,-22.59197044,50.63146591,-5.66865778
705,10.41274357,0.044318803,7.069982052,-0.937109888,59.59944534,-3.708630562
706,11.35406113,-0.501938462,5.990127563,7.462408543,52.11806488,1.197930336
707,11.51830673,-0.169481561,5.708001137,-4.807678223,39.76438904,3.827699184
708,11.70261002,-0.078500472,4.90929842,-4.849554062,27.0502491,-4.586984634
709,9.332161903,0.503962219,3.93354249,-26.3141861,21.01588821,-10.15240002
710,4.555707455,1.13890624,2.870835066,-73.88459778,4.887639046,-10.0875988
711,0.627291799,0.682651043,3.622596979,-39.34425354,-29.21351242,-15.43643951
712,-4.366841316,-1.593779683,8.876722336,-11.99197006,-13.95283127,-11.8194809
713,-4.655334473,-1.856584787,8.499155998,13.01169872,-3.192075014,-6.009871006
714,2.380986929,-0.686890006,9.809656143,18.52850151,-4.117835999,-2.508715868
715,6.320296764,0.554514408,10.93106079,3.560377121,-4.835217476,-5.909836769
716,6.74309063,1.265814662,11.72608852,-4.925185204,-2.685864925,-14.77902699
717,5.20714426,0.545212686,11.85547733,-30.24576569,12.35660172,-7.426630497
718,3.040376186,-0.323488295,11.71637344,-40.1485405,23.12256622,2.936672211
719,1.944996953,-1.513340473,11.51922607,-30.32222176,27.95219421,3.519942284
720,1.984873652,-1.291109681,9.774583817,-17.98835945,20.81737137,-1.830890059
721,3.026609421,-0.267843395,8.481935501,-5.290694237,6.598831177,-0.851180613
722,3.190892935,0.56897819,8.296984673,-3.185752153,-1.952257395,1.644284129
723,2.527815819,0.027188929,8.373841286,-3.916354895,-0.4466407,4.152600288
724,2.490216255,-1.025447488,8.128287315,-1.933330297,8.523255348,3.752927303
725,3.42345953,-1.767239571,8.376693726,-2.744352818,18.32028008,1.358812928
726,3.638056993,-1.830104828,8.260088921,1.05080092,20.16953087,-2.458278418
727,2.872671127,-0.889238596,8.10280323,11.0042038,15.99298859,-6.398490429
728,2.310421944,0.098131582,7.993940353,12.1769371,12.32575989,-6.5027771
729,1.894181252,-0.086321041,7.647179127,14.11623764,14.69441986,-4.886577129
730,1.906434536,-0.548506796,8.546709061,36.75230408,13.06057835,-7.881706238
731,2.12960124,-0.692049205,8.849294662,23.82696915,6.812778473,-11.43792534
732,2.541270971,-0.058396809,8.883572578,15.96993828,-2.452912331,-11.62239933
733,3.263669968,0.616024077,9.476957321,10.56694889,-6.259178638,-8.20036602
734,3.022894382,0.663710773,9.623544693,-0.509955347,-7.135052681,-2.464665651
735,2.73677516,-0.095902272,9.472533226,-2.234491587,-10.40513802,0.968154132
736,2.671995401,-0.762892783,9.449362755,0.351829082,-13.54196167,1.457965493
737,3.062759399,-0.66253227,9.68461895,7.688205242,-17.7554493,-0.958415687
738,3.626713037,0.078715086,9.980010986,12.49218178,-19.18047142,-3.673475981
739,3.717069149,0.475632459,9.872847557,14.6843195,-18.43756676,-2.7671628
740,3.704662323,0.718651116,9.604814529,17.30840492,-21.77738571,-1.262799382
741,3.436574221,1.177695632,9.390966415,11.57811356,-26.79339027,-2.951046228
742,3.316758871,1.655266285,8.871435165,4.03361845,-33.29323959,-1.641748428
743,3.841649532,1.181359768,8.961916924,-5.8028512,-38.49057007,5.784544468
744,4.163944721,-0.581681132,9.019094467,-3.748893738,-38.46274185,8.002462387
745,4.055469513,-0.733317912,9.203534126,13.59731674,-40.23838806,1.833087087
746,4.895697594,1.068543196,9.242411613,19.15327644,-44.72301102,-1.13967216
747,5.216670513,1.881643057,9.064173698,9.763565063,-51.05818558,-1.669176459
748,5.085435867,1.319497943,8.966056824,-0.241312936,-58.51306915,2.652630329
749,5.329323769,0.157165989,8.974615097,-4.400362015,-63.02218246,3.974602699
750,6.642402172,-0.276316762,8.812785149,-5.596496105,-64.30130005,0.819919467
751,7.215189457,-0.977575839,8.63757515,-5.278115273,-60.09224319,0.048773613
752,6.487583637,-1.270678043,8.948210716,-14.4199276,-59.64189529,-0.241434887
753,5.675913811,-0.902330995,9.31765461,-27.44000626,-63.43883133,-6.141382694
754,4.974034309,-0.207137674,8.659858704,-4.95531702,-98.49895477,-18.20318794
755,5.753676891,-0.170755774,9.214806557,42.59537506,-132.2954712,-18.8921833
756,7.063865662,0.485173404,8.308479309,72.01916504,-105.6364746,-10.38751698
757,6.450278759,1.825372577,7.207211971,82.82468414,-57.67195892,-0.238738135
758,6.813401699,1.054519415,7.657943726,57.87674332,-42.79735947,5.658704758
759,5.934366226,0.002811041,7.885931015,39.72873306,-46.01156235,1.968348742
760,4.325377941,-0.564932525,7.835677624,47.19935226,-48.15522766,2.178881407
761,3.543102026,0.260388255,8.226928711,42.21903229,-50.74839783,4.199612141
762,3.370451212,1.79525578,8.018461227,32.12182617,-54.21500015,5.39010191
763,3.311502934,2.643469095,7.594517231,20.85473824,-58.233181,3.144481897
764,3.177965164,2.475065947,7.209719658,9.941153526,-56.67287064,0.332014889
765,3.061153173,2.330527782,7.121181488,-2.447895765,-47.83662796,1.015846252
766,3.826639414,2.572901487,7.512520313,-17.21735954,-36.93999481,4.032922268
767,4.616663456,1.878946304,7.310251713,-30.4268837,-26.61451149,6.88856411
768,4.932309151,0.726721287,6.786431789,-42.89486313,-18.49617386,9.506064415
769,4.109451294,-0.024583617,6.692102909,-44.77600479,-1.789803386,12.29874039
770,3.569580317,-0.029568436,6.542146206,-48.45821381,23.22346878,10.93218708
771,4.289635658,-0.462723225,6.285596848,-49.43801117,49.69016647,7.4054389
772,4.705366611,-1.091248035,5.68598175,-48.841465,69.60062408,3.174300909
773,4.423295498,-1.287303448,5.741325378,-38.77568817,84.37838745,2.561578274
774,4.078572273,-0.788534403,5.395586491,-39.51304245,98.87041473,-0.907526314
775,3.826976776,0.121699393,5.139751911,-43.98633575,101.7861404,-3.132447481
776,3.212275267,0.20520775,5.365329266,-32.83070755,97.54865265,-0.797449112
777,3.69085741,-0.052002028,5.983509064,-22.19681358,98.0160675,6.029662132
778,4.173020363,-0.373751432,6.699481487,-10.33238888,102.0665588,8.964932442
779,4.161776543,-0.08728043,7.854430676,0.411017358,106.8507233,13.15224266
780,3.78411293,0.067535833,8.575660706,5.396571159,110.3105011,17.64655113
781,4.083216667,0.361698896,8.954649925,11.84737301,110.9888611,21.06024551
782,4.780178547,-0.03110598,9.844750404,8.962442398,102.6379395,24.10384369
783,5.783165455,-0.023284718,9.288982391,-0.041429654,84.00121307,23.77136803
784,6.581841469,-1.477118492,9.601360321,-11.09093952,69.54152679,21.17625618
785,7.660556793,-2.106935024,10.02192783,-4.296046257,61.17907715,14.889678
786,9.821868896,-1.223900437,11.06143475,15.17488098,64.33177948,0.864512324
787,12.34287548,0.146624431,11.91917038,30.83872795,83.8467865,-22.81867218
788,13.97498131,2.863419533,11.17389774,45.73781204,92.40673828,-28.19812393
789,12.40718842,2.464836836,9.251746178,31.67636108,97.78321838,-8.539485931
790,10.31229687,1.210042715,7.751764297,30.53367424,93.69657898,2.033513069
791,10.05336761,-1.563908458,7.840423584,36.92104721,78.99140167,-3.627220154
792,10.24170971,-1.144019842,5.284431458,22.24507523,59.32410049,-20.05554199
793,8.734941483,0.380999923,3.579124212,-7.064527035,40.94698334,-28.85421562
794,5.167215347,0.956443071,4.075742245,-42.09151459,24.96579361,-32.04609299
795,2.387433529,0.829747379,5.187495232,-22.39818573,0.179430708,-30.79994965
796,-1.875234008,-1.65839839,6.971865177,-17.30497742,-4.735090256,-21.28234673
797,-5.674312592,-2.44096899,8.187143326,6.198153496,-5.252972603,-17.34812355
798,-4.179264545,-1.216412663,11.05260658,26.74230576,-5.709710121,-11.99821091
799,1.486765623,0.100792557,10.68214703,46.9804306,-9.709733963,-7.198309898
800,5.354764938,0.493570954,10.76330471,48.63061142,-10.27727032,-7.758047581
801,4.606598377,-1.152952671,11.04685783,56.84452438,-12.09125996,-12.04400349
802,1.627701283,-0.091928206,11.22919178,59.81319046,-11.37497616,-7.418055058
803,0.908424437,2.329618692,11.58333397,41.86316299,-6.79672575,0.962954044
804,1.03460288,3.25271821,11.74518776,3.257514238,-4.174763203,11.70586777
805,1.928886056,3.300261021,10.87256145,-26.92461014,0.420779586,11.60530472
806,2.510380983,2.622276068,9.584557533,-55.33239365,-0.177830979,12.67018795
807,2.262198925,1.124632478,8.76472187,-61.59233856,-3.837469578,12.92260838
808,0.55051136,-0.133392736,7.664571762,-43.46554947,-10.15096664,5.634885311
809,0.367920697,-0.123060241,7.763454914,-19.07693863,-12.80534935,-2.401156664
810,1.93111062,-0.524307907,8.603643417,-8.686859131,-9.754127502,-5.56378603
811,2.730418921,-0.95577085,8.995532036,-2.711842299,-10.83955002,-7.311423779
812,2.462211847,-0.849628627,9.49169445,-2.047627926,-11.77797699,-10.00447559
813,1.780373931,-0.290119082,9.441823006,-0.104519166,-14.78672409,-12.92546082
814,1.468296647,0.273781896,9.095306396,3.701914787,-21.32156754,-15.16701412
815,1.500158072,0.712323487,8.888864517,7.779812813,-28.85797691,-14.49648094
816,1.784247994,1.199235797,9.267348289,13.35237694,-36.95828629,-11.41906071
817,2.516261816,1.341949224,9.822598457,14.53243446,-43.15699768,-8.235959053
818,2.643835068,1.408329368,10.19614887,12.99574661,-46.37707901,-2.206148624
819,3.086260796,1.350889087,10.04475117,9.507142067,-47.3212738,4.012621403
820,3.498360157,0.659855545,9.499854088,7.987517834,-45.62610245,9.086375237
821,3.656019211,0.065481424,9.329827309,11.37667274,-42.59354401,9.197835922
822,3.74489069,-0.377464294,9.728245735,14.79826546,-32.01167679,8.107429504
823,4.012414932,-0.131142229,10.40613842,22.49108696,-17.42728233,5.548955441
824,4.369774342,0.906661808,10.87591934,26.36086464,-7.545808792,2.536586046
825,4.330042362,1.478567004,10.53571224,23.81435394,-7.151714325,1.78158462
826,3.511254787,1.221702337,10.13294125,23.17440796,-10.61680126,1.412645936
827,3.714443922,0.926658928,9.564846992,19.50824928,-9.18893528,0.547254622
828,4.058540344,1.176233411,9.405193329,9.493683815,-5.337425709,-1.730157852
829,3.891290665,1.780964136,9.353543282,6.389198303,-7.803256512,-3.414366007
830,3.834451675,1.955790639,9.178958893,5.614293575,-9.456980705,-4.920842171
831,3.929955244,1.704023838,8.386116028,1.395015717,-11.65378475,-4.801487446
832,3.796876669,1.330495954,8.34133625,-7.080938816,-15.60323906,-2.671810389
833,3.740595818,0.927710235,8.321649551,-10.96760082,-19.20664597,1.535842538
834,4.353964329,0.66068083,8.074102402,-9.230844498,-24.54969597,1.4048599
835,4.308157921,0.840272903,8.344902039,-9.072907448,-26.51902008,1.691070199
836,4.443497181,0.874212205,8.6334095,-4.808255672,-29.78067017,1.569282413
837,4.384918213,0.37338838,8.602258682,-4.148753166,-37.27251434,3.238504887
838,4.392426491,0.347415477,8.623408318,-7.201299667,-45.3900032,3.305932283
839,4.843335629,0.4506253,8.445195198,-10.2927599,-51.43989182,2.857085705
840,5.330053329,0.41413185,8.296555519,-17.98720169,-57.10192871,4.931916237
841,5.599400997,0.439279675,7.906424999,-23.74104881,-58.92546463,6.188597679
842,5.743365288,0.02983259,8.130781174,-40.83805084,-56.5631218,7.506617069
843,5.6614604,-0.062846109,7.739904881,-40.4739151,-70.99569702,4.547039509
844,5.882657051,0.593463063,7.194497108,-27.70716476,-82.254776,1.831676602
845,6.159443378,1.023214817,6.947556019,28.96998787,-74.71025085,1.460814953
846,5.969090462,-0.53436631,7.649358749,48.45172501,-70.33995819,6.919737816
847,6.403030872,-1.212202072,8.319068909,36.31969452,-77.27762604,5.458962917
848,7.134356976,-0.280649781,8.653731346,27.63942528,-90.72857666,-1.020230889
849,6.767614841,0.439198464,8.700251579,29.61494637,-96.73835754,-1.20548594
850,5.460407257,0.378000706,8.889819145,38.30436707,-99.59506989,1.990967989
851,4.456524849,-0.641777754,9.608893394,47.47023392,-97.78908539,4.125724316
852,4.573328972,-0.963814914,9.542770386,54.63431168,-96.27550507,3.67001009
853,4.585066795,0.462240994,9.275401115,51.84445572,-93.74449921,2.470137358
854,4.178833485,1.945597529,9.155260086,41.19759369,-85.43884277,2.629444838
855,3.903279305,2.260171175,8.387882233,33.47138214,-71.45796967,0.618457794
856,4.41768837,2.464379072,6.141820431,9.996335983,-47.66334534,-4.966337204
857,5.001243591,3.334052086,5.078176975,-23.38105392,-22.1601429,-2.374773026
858,4.469090462,2.278325558,5.150848389,-43.26216888,4.607128143,1.652401686
859,3.186647654,1.067486644,5.285504341,-49.22065735,32.41720581,4.106995583
860,3.406271458,-0.026259933,5.611787319,-45.44474792,52.66220093,5.052063465
861,3.102065802,-0.534113526,5.45151329,-49.90406799,73.28128815,4.623412609
862,3.920752525,-1.005131006,5.330002785,-46.43771362,86.83878326,1.710564137
863,3.316300869,-0.646429062,5.899953842,-39.52293777,95.90672302,-0.718533874
864,2.469655752,0.02010523,6.273267269,-30.09881401,102.8004913,-5.252288342
865,3.005342484,0.771354795,6.14215517,-27.82073975,112.8601151,-7.131646156
866,3.812892199,0.521553159,6.524919033,-26.84364128,115.5304413,-4.944027901
867,3.814978361,0.192434743,6.782054424,-27.92884827,115.1816177,-0.105202973
868,3.999061108,0.383043617,7.368824005,-27.63601875,114.1619568,6.59760952
869,4.483838081,-0.157618374,7.313846588,-20.07922173,111.8068771,6.216594219
870,4.80577755,-0.108767353,8.974761009,-20.15491676,103.3948135,6.42289257
871,4.564397812,-0.982951283,9.337670326,-23.78626251,93.07293701,8.482780457
872,4.757446766,-1.082906127,9.116707802,-18.834589,78.42536926,9.691288948
873,5.404510498,-1.671923637,8.949255943,-7.293781281,57.90886307,14.31488132
874,7.427195549,-0.670796514,8.292191505,3.65991807,40.22537994,13.22415829
875,9.663733482,0.19716838,9.986394882,-4.595994949,46.1768074,16.53752518
876,12.91161728,1.419565082,12.03991699,-15.25016975,63.71684265,17.49189949
877,15.78824234,2.064361334,12.34928894,-38.42136002,63.66608429,10.56615353
878,14.80308914,1.394645572,11.15380859,-49.8196106,36.66287613,-11.61619377
879,11.22994518,0.976593852,9.004021645,-22.64192009,21.25113869,-11.83776188
880,9.068034172,0.583652675,8.037522316,-16.93450165,41.51273727,2.036416531
881,9.371283531,-0.021393035,6.917752743,-12.61533165,44.55408096,4.038615227
882,10.67193508,-0.692453802,4.356711864,-12.98353386,48.65725708,7.220592499
883,8.917887688,0.708672822,3.92565012,-1.237852931,48.19433594,5.788467407
884,3.780724764,1.615214229,4.352665424,-70.72674561,54.11126328,11.49887943
885,-0.185975745,0.30210799,3.33404851,-73.16940308,16.18710327,4.691794872
886,-4.46462965,-2.483482599,5.736232281,-62.26229095,21.67484474,11.45800781
887,-4.01598978,-3.062242508,7.288212299,-44.04539108,11.11528301,14.18343925
888,1.626116037,-2.476344585,9.648033142,-30.12078285,9.014129639,10.04541588
889,4.104753971,-1.425488353,11.73112869,15.15194321,22.81266975,0.186339304
890,6.629475594,-1.248755455,12.99547386,46.4025383,32.64682388,-9.639303207
891,4.868866444,-0.797082901,12.16031075,35.78743744,36.56124496,-4.817165852
892,2.192605972,-2.07770443,10.55149174,17.76961136,34.65373611,5.461656094
893,-0.028821226,-4.181930542,10.19210625,24.31485748,30.03068161,4.057265282
894,-0.873040378,-3.753542423,9.192550659,35.41301727,19.2668438,-6.076282978
895,0.649722755,-0.621043324,8.121870041,46.20132828,4.413936615,-10.48536682
896,2.555088043,1.353660464,7.98510313,36.0736351,-5.170479298,-2.656145573
897,2.276440859,1.120974064,8.672338486,21.22827911,-6.547431469,5.85639286
898,1.867911816,0.411373615,8.756048203,18.97376442,-5.60255003,7.427667618
899,2.268294334,0.095654592,8.774252892,17.40598679,-2.879466295,3.114098072
900,2.538511515,-0.918476343,8.641060829,18.67312431,-1.902071476,-0.923985541
901,2.240958452,-1.665000439,8.873616219,22.70611,-5.457852364,-1.612789869
902,1.712499619,-1.496248603,9.227589607,25.33769608,-9.945365906,1.721216083
903,1.500495672,-0.732129037,9.48446846,24.8965435,-14.44962215,6.884317875
904,2.356667519,-0.320440084,9.560796738,22.07082176,-15.97498989,9.107672691
905,2.855319262,-0.93041712,9.643498421,24.46193123,-14.21061707,9.410365105
906,2.266037941,-0.984188914,9.707196236,29.48097229,-11.78180313,8.003653526
907,2.403923035,-0.447085708,9.80334568,30.41635323,-9.191074371,4.648369789
908,2.742386818,0.361621827,9.928992271,25.42903519,-4.570239067,2.516703606
909,2.792091131,0.572054088,9.786588669,21.59314346,-2.011618614,0.943086803
910,2.517730236,0.295601606,9.474669456,17.58649445,-2.228621244,-0.762612641
911,2.044696569,0.186158001,9.55903244,17.04933167,-6.655704975,0.093870662
912,2.39041543,0.138584539,9.336190224,13.53493786,-5.263803482,1.846395254
913,2.424039125,0.051948205,9.516747475,8.152089119,1.436706424,3.599609613
914,3.01779604,-0.336429387,9.768527985,-5.180455685,14.80960369,5.416240215
915,2.794220686,-0.449366152,10.09793568,-11.20735931,17.00023651,6.264004707
916,2.553122282,-0.199158534,10.33517742,-5.04512167,11.14215755,2.828053236
917,3.085157871,0.14015165,10.31000519,-5.1924963,8.60693264,-3.170526743
918,2.960376024,0.415178418,10.30609608,-11.24921131,-0.712244689,-2.638973713
919,2.501325369,0.068965822,10.31804085,-15.42355728,-8.282510757,1.114038587
920,2.908267736,-0.262737721,10.85220718,-5.058580875,-8.847034454,1.339544773
921,2.859537125,-0.154822782,10.89316559,2.445975065,-9.5177145,3.027255535
922,2.585945368,0.239174679,10.67506313,-9.599797249,-12.02820396,6.553860664
923,2.613417387,0.186448246,9.676142693,-4.686424255,-16.60396194,3.399109602
924,3.009364128,-0.15753971,9.185465813,4.021701813,-23.97341537,1.8215276
925,3.417434454,-0.778571546,8.162446022,17.88825035,-19.46391296,3.408187866
926,3.178882122,-1.192786455,6.438685894,31.93647194,-13.2927599,4.537539959
927,2.671260118,-1.21355927,7.038894176,35.60943604,-12.41695023,2.187335491
928,2.854045391,-0.303023219,8.221014977,-0.596496046,-30.72753906,-1.507875681
929,4.032060146,1.170878887,8.630282402,-3.09665966,-48.8898735,-7.294425488
930,4.26188755,1.102959037,8.703840256,-5.294919014,-68.36327362,-6.328267574
931,4.083094597,0.30763787,8.99451828,1.723320603,-87.5863266,-5.3859272
932,4.417853832,-0.510596991,9.108854294,13.06781101,-104.1639099,-4.752908707
933,5.036483288,-0.698377967,9.17407608,29.86214066,-119.1216278,-5.788976192
934,5.000214577,0.309009075,9.091873169,30.37718391,-127.9026566,-5.557686806
935,5.804215431,0.599247754,8.702160835,26.41102982,-134.5157623,-1.351755023
936,6.393541336,1.06860733,8.237672806,24.66336632,-137.8058777,1.918190718
937,6.595598221,0.665657401,8.017385483,22.28114128,-137.240448,2.057742834
938,6.436965466,0.624530196,8.603814125,23.08323669,-137.7685852,2.538527489
939,5.831007481,0.33324337,9.355084419,23.82545853,-145.3355865,2.914896488
940,5.846756458,0.666787028,9.24062252,24.17466736,-143.1935577,1.243832469
941,5.938234806,0.249841243,8.81970787,24.32749557,-125.9097061,1.710515261
942,6.068670273,0.26611957,8.866784096,18.3805027,-108.2241058,0.983697295
943,5.540223122,0.594080091,9.351585388,12.38427067,-99.73519897,-2.842131138
944,4.350939274,0.335220337,9.195868492,10.75123787,-87.37956238,-6.622376919
945,3.992092609,0.138640955,8.07336235,5.410895348,-60.70604706,-7.641246796
946,3.870221138,0.526106954,6.292529583,0.322938979,-31.64398003,-10.14512062
947,4.123171329,0.994243622,5.616958618,-5.372901917,-7.081987381,-13.33706093
948,4.238977909,1.045586705,5.701723576,-12.63023472,13.83621693,-8.538049698
949,3.960548639,0.309942514,5.300076962,-14.90346622,32.74773026,-4.91709137
950,3.211617231,-0.378335327,5.514697075,-14.36749458,48.02279282,-1.011633635
951,2.696027279,-0.503806412,5.49532938,-17.96671867,64.59468079,-2.015297174
952,3.361157656,-0.21452415,6.038110256,-16.72602654,75.36504364,-5.943980694
953,2.998468637,-0.246920615,6.131984234,-10.24304581,85.08604431,-3.740338326
954,2.907299995,0.068349138,6.446490288,-10.44589901,94.02838135,-5.474483967
955,3.258490801,0.672606349,6.850552559,-7.96235466,101.9900131,-6.92429781
956,3.961839914,0.65091151,6.658632278,-0.619137585,97.80213928,-8.670020103
957,3.569744825,1.22484982,6.317349434,2.993282318,99.20622253,-10.67579365
958,4.313737392,1.660616875,6.647310734,7.292075634,88.65316772,-4.695188522
959,4.682140827,1.847712159,7.466748238,-0.518132687,85.41893768,-2.298593998
960,5.508181095,1.389889836,7.959249496,-0.333605766,75.59645081,-0.077524804
961,6.604324818,0.57680428,8.542869568,-0.829920769,62.96682358,2.133862257
962,7.364844799,-0.388777882,8.015500069,-14.00931644,48.23969269,1.085130095
963,7.665534019,0.294935286,7.0839715,-20.70175743,36.29912186,0.894176841
964,8.615679741,0.368613422,8.088616371,-19.8983326,31.85525131,0.067259297
965,11.03984261,-0.060978323,8.952467918,-10.40594196,41.77606583,-9.791578293
966,13.33191776,0.178041667,8.739553452,8.616623878,38.61597061,-22.73479652
967,15.18794918,1.016978383,8.674679756,12.20824814,27.7727108,-20.6733551
968,14.41242599,0.467755258,7.981544971,5.806331635,26.61802292,-17.69962692
969,12.42574501,0.729526401,6.412773132,16.68165207,44.66728592,-23.44352722
970,12.09578705,1.927858233,4.893639565,37.51015854,84.35516357,-29.66398048
971,8.774425507,-1.483868718,4.573978424,-26.56631088,131.8461609,-21.15877151
972,7.654036522,-1.298665762,-2.720938206,-8.698532104,39.28935623,-24.65642929
973,5.323850632,1.401866436,1.247107029,-6.001763344,2.270095587,-20.64264679
974,4.850933075,2.588531256,3.928509951,-8.876220703,-37.37112045,-18.96475792
975,0.404081225,-0.493058234,8.47667408,-8.93406105,-27.84287071,-17.99638367
976,-4.236346245,-2.321653605,10.89472771,27.71727562,-4.228645325,-24.25920486
977,-2.169570684,-0.318235755,9.460159302,63.43968582,8.857898712,-10.0751152
978,5.154316425,0.19183065,10.92987919,59.13439178,25.89451218,-0.350675046
979,8.827934265,1.557814956,10.83280468,37.78005981,21.56720161,0.672798872
980,7.882412434,3.022828579,10.93446827,30.53689194,9.262239456,0.337615013
981,4.597869396,2.654610872,11.0225563,4.633594036,3.269384384,1.582275867
982,1.619116306,0.966157734,10.82957935,3.2142272,2.943398476,0.019132685
983,-0.475646704,0.928519666,10.10960484,0.081243493,-3.394931555,1.37359643
984,1.925085187,1.960292339,9.221149445,-2.471198082,-15.43798161,2.239371061
985,3.499470472,2.078199148,8.619417191,-1.344190717,-29.87396049,4.394935608
986,4.488437176,1.09678793,9.091601372,-1.235327244,-40.94547272,7.07945776
987,4.608122826,0.483716369,9.686771393,8.785050392,-47.71207047,3.882532597
988,4.478030682,1.05779326,10.05858707,19.1791954,-42.96837616,-0.220136493
989,5.279896736,2.054293871,9.655231476,15.85269165,-35.4723587,-1.290303946
990,4.776741028,2.21974659,9.457767487,6.18147707,-29.24586678,2.954088211
991,4.141410828,2.110268593,9.535447121,-1.765604138,-27.62493134,8.177500725
992,4.249732494,1.94411695,9.502602577,-8.289276123,-25.10796356,6.69627142
993,4.750089169,1.621060491,9.548471451,-9.646922112,-14.05183697,2.57327199
994,5.049861908,1.316491604,9.393185616,-6.093948364,-3.151124954,-1.401981831
995,5.067146301,1.159240246,9.183260918,0.804712772,6.583182812,-4.142925739
996,5.045656681,1.271927834,9.106349945,7.743377686,11.78312016,-4.811265945
997,4.600157261,1.184973478,8.777910233,14.02162933,14.30978584,-5.192988873
998,4.227014065,1.367510796,8.441757202,19.55109787,13.63188839,-6.705309391
999,4.292563915,1.848263025,8.615864754,18.17264175,13.26666164,-5.171451092
1000,4.340421677,1.925684929,8.707315445,12.27355289,10.93414879,-1.413572669
1001,4.367640018,1.77592814,8.876945496,5.880025387,9.541810036,2.007472992
1002,4.365984917,1.794669151,9.200580597,1.063593745,12.10565758,6.665056705
1003,4.555630207,1.699628711,9.423167229,-5.36509037,12.62732792,7.689349174
1004,4.495658398,1.54955411,9.368296623,-5.643309116,11.80168915,7.587781906
1005,4.503687859,1.150801301,9.521677971,-3.117406845,12.60094452,6.098439217
1006,4.500957489,1.159409523,9.446791649,-0.311354578,14.18011093,4.754117489
1007,4.736113548,1.558609605,9.507261276,-4.459166527,9.492082596,5.365683556
1008,4.555749416,1.975644946,9.631986618,-16.37432098,12.39138031,6.239994049
1009,4.782478333,2.070950508,9.367984772,-15.58493423,11.61211014,7.73267746
1010,4.621208191,1.735542297,9.013792992,-13.4880867,13.79437065,10.03594398
1011,4.699505329,1.698313713,8.567288399,-17.68470764,14.72859097,12.44135952
1012,4.699954033,1.593490005,8.06264782,-24.72887993,12.4203167,12.47762585
1013,4.683274746,0.795262218,7.592770576,-29.18500328,11.69426346,8.571077347
1014,4.394458771,-1.259434223,7.941887856,-24.8936615,12.07019901,3.409905434
1015,4.680511951,-2.277091265,8.095967293,-21.78816795,19.55834007,1.009719729
1016,4.332730293,-1.534606695,7.394768238,-19.30418587,21.66439819,-5.101007938
1017,3.760932446,-0.152638763,7.303001404,-25.00817299,10.43327618,-14.19935989
1018,3.94748044,1.305004001,7.023000717,-20.85280609,-2.513769865,-12.95566559
1019,4.199699402,1.62774682,7.026332378,-12.66328621,-12.17043304,-7.49406147
1020,4.386600971,0.907029092,7.386894703,-3.328806162,-23.90023804,-1.625109911
1021,4.784123421,0.585607588,7.354387283,4.993517399,-38.54047775,0.279666573
1022,5.278581142,0.786009014,7.164080143,2.929097414,-53.22032928,0.311709642
1023,5.024596214,0.557797372,6.548741817,-2.343999624,-64.55809021,2.073544741
1024,5.238092899,0.57920289,5.913356304,5.690335274,-77.72780609,3.615623951
1025,5.69591713,0.635583937,6.1396842,11.37810421,-73.87625885,6.907741547
1026,5.641993046,0.940845251,7.540768147,22.25538445,-70.30654144,8.881491661
1027,5.426045895,0.789172649,8.838113785,-13.91072178,-79.59590149,14.21292782
1028,5.402297974,1.725088239,8.471885681,-29.72039986,-88.66464996,16.39283943
1029,5.000012875,2.303916454,7.370906353,-36.66685104,-84.08626556,20.65629387
1030,4.858516693,0.419333786,8.319573402,-38.25970459,-87.46518707,20.60848427
1031,5.016541481,-1.524032474,8.536990166,-19.16344643,-98.3199234,16.74398804
1032,4.487126827,-2.901347876,8.189512253,-0.693765044,-101.4111328,16.87083244
1033,4.307090759,-2.103842735,8.040496826,7.663709641,-96.99146271,15.30049992
1034,4.433645725,-0.632445276,8.459126472,11.92856216,-92.52249146,10.10895443
1035,4.422719955,0.650312841,8.453070641,10.91226578,-83.92258453,4.758454323
1036,4.589748383,1.270839691,7.976304531,14.41643429,-66.92211151,1.105142117
1037,5.011637688,1.107120752,7.919613361,19.92796326,-52.79114914,1.906361341
1038,3.515317678,0.73715961,7.998562336,19.88970566,-35.25005722,-1.349291086
1039,3.282839775,1.306118846,7.6184659,15.36643696,-11.56916237,-1.544646382
1040,3.683339596,2.605516672,6.525569439,16.77427483,5.243258953,0.024601024
1041,4.422495842,1.320912957,6.970318794,31.9465332,18.28569031,-0.799196839
1042,4.09771204,-1.722804785,7.723482132,37.67873764,43.51714706,1.719714403
1043,3.909032583,-2.287854433,8.139924049,39.46522522,59.33799362,0.227009401
1044,4.268971443,-0.587607086,8.324706078,17.90361404,73.835495,-1.839253426
1045,4.301691532,1.292054892,7.884650707,-5.784079552,81.72714996,-1.259399772
1046,3.540162325,1.466319799,7.380930901,-8.585515022,92.28469086,-2.560483217
1047,3.481538057,0.79590863,7.352626801,-3.356629133,99.23134613,-1.88756144
1048,3.454446793,0.542597473,6.790729046,-3.676605463,98.60499573,4.49561882
1049,3.756584644,0.495853752,7.045051098,-1.591190577,102.4274368,8.380786896
1050,5.108088017,0.385790557,7.808927059,-5.037021637,95.55960083,0.816930592
1051,5.21867466,0.81658119,8.325164795,-20.73369217,92.31345367,-2.009181023
1052,5.272591114,1.689072013,8.367142677,-27.80828857,87.87293243,-1.333251357
1053,6.02684927,1.344549894,9.296544075,-34.82806778,74.59836578,0.427191645
1054,7.717888832,1.137882113,9.90048027,-43.47637558,47.84251022,-3.108844757
1055,8.373550415,1.397555947,9.577865601,-47.67137909,25.64740181,-2.609442472
1056,8.250051498,0.186452225,8.576683044,-39.98032761,19.2945137,-3.187708616
1057,10.32934761,-0.735547006,9.424211502,-5.524580002,23.59456825,-16.70480156
1058,12.38444424,0.441546261,10.20327568,21.33920097,27.34501648,-20.82220268
1059,14.36505032,0.931333721,9.912171364,-0.84715122,38.09346771,-11.77122116
1060,15.44013786,-0.090077907,9.446889877,-6.795162201,57.01613998,-10.59411049
1061,13.16363621,-0.732226372,7.997732639,18.88892937,73.40290833,-20.11574745
1062,10.60068512,-1.253774643,6.768890858,16.17463684,78.48530579,-10.072752
1063,9.444929123,-1.519659996,4.230305672,-14.08805847,78.75160217,-1.819490433
1064,9.710254669,-2.465803385,2.211981058,-28.54164124,60.96686935,4.146954536
1065,9.562670708,-0.346953034,2.912902355,-1.819069743,41.1835022,-8.038422585
1066,5.881434917,1.802426696,3.575683355,-2.809327126,17.31818008,-11.81792927
1067,2.679934502,2.537456751,3.869576454,3.835549116,-13.70603085,-0.46821326
1068,-2.920826912,0.365475357,7.63082695,-9.66338253,0.489036709,15.89008713
1069,-4.483132839,-1.769909859,8.204610825,-22.62054634,8.747531891,17.28953552
1070,-0.144468933,-3.064291716,9.655879974,-17.42285538,12.59912586,5.141399384
1071,5.206526279,-2.820545673,10.74692535,-12.97198772,15.55353928,1.775564671
1072,6.610888004,-0.197962239,10.61264896,-12.86364079,12.75779152,3.354358673
1073,5.491568565,1.540131688,11.07232189,-29.67871857,8.629985809,5.207656384
1074,3.111456633,1.473266721,11.42105961,-39.27354813,15.60217571,2.469156265
1075,1.101884365,-0.253565282,10.83950233,-26.01174164,27.04230499,-2.959530115
1076,0.796359539,-1.574870586,9.368264198,-8.578464508,23.97930908,-7.649758339
1077,2.334733963,-1.377104282,8.585315704,-0.789870501,10.21646976,-9.675689697
1078,2.427149057,-0.356599778,8.132397652,0.837010384,-1.764734507,-5.964615822
1079,2.532211542,-0.281273663,8.498630524,-6.353891373,-6.369028568,0.813690126
1080,3.065550327,-0.729353428,9.112630844,-15.97969913,-6.097820759,3.739739895
1081,3.304684162,-1.301809669,9.205353737,-19.2325058,-0.857226193,4.542200565
1082,3.513354063,-2.195604801,9.106016159,-17.048172,4.640860558,3.65382266
1083,2.711391687,-2.34160018,8.780723572,2.77105093,5.093060493,-0.936522067
1084,2.411780119,-2.039586067,8.488212585,23.20377922,-1.477311373,-4.733587742
1085,2.26627183,-1.489863396,8.940481186,37.84260559,-6.209005833,-6.53387928
1086,2.320133686,-0.227065861,10.33532429,48.45274353,-3.466996193,-7.000579357
1087,2.830214739,0.731428862,11.28863525,42.80262375,2.888234854,-6.098340511
1088,2.702417612,0.813011944,10.87073803,32.66014481,0.74996829,-4.348150253
1089,2.290278435,0.402330816,10.19918633,21.78973007,-12.38619328,0.033719189
1090,2.55910635,0.102502428,9.89540863,12.52074051,-22.84728622,2.41394496
1091,3.295033455,-0.173743084,9.628862381,1.69687748,-26.60277176,-1.107431889
1092,3.397047997,-0.544843137,9.281033516,-7.678707123,-29.1615448,-4.028923035
1093,3.560253143,-0.755378664,9.355876923,-6.305015087,-28.12351799,-7.337094307
1094,3.685975552,-0.529943109,9.354120255,4.133220196,-22.85330772,-10.0365448
1095,3.852475405,0.020678086,9.164777756,11.91898251,-20.91768646,-11.71319103
1096,3.740673304,0.573857248,9.06258297,11.3550806,-19.68326569,-8.528027534
1097,4.074227333,0.284384996,8.709073067,4.543122292,-16.48575592,-4.772388458
1098,4.274557114,-0.346311927,8.388011932,3.251443624,-8.814248085,-3.333564281
1099,3.935654879,-0.652348459,8.466917992,8.246087074,-5.055262089,-1.966985226
1100,3.679040909,-0.586842477,8.730953217,13.09359169,-3.082868099,-2.889466524
1101,4.122095585,-0.244037166,8.884530067,14.75468063,-3.61679101,-6.781422138
1102,4.019750118,0.230127022,8.659824371,8.465539932,-8.909172058,-6.037268639
1103,3.937981606,0.239191517,8.666000366,5.414618492,-14.22526073,-2.13011384
1104,3.883896589,0.207296491,8.848478317,6.906940937,-19.25865173,-0.321465433
1105,4.237703323,0.160768583,9.122467041,0.540006518,-25.27280235,2.629482269
1106,4.185445309,-0.2611413,9.689333916,-1.382867336,-34.34536743,2.560498953
1107,4.701723099,-0.228170872,9.217541695,-1.667635918,-46.14019394,2.869335413
1108,5.128261089,0.292354405,8.482722282,-2.662667513,-55.35528564,4.190514088
1109,5.226074696,0.632486224,7.961275578,-6.068304539,-60.58362961,5.031098366
1110,5.875641823,0.471326232,7.360729218,-9.237054825,-60.23715973,6.115586758
1111,6.224200249,0.322008193,7.749675274,-19.91097069,-52.50959015,9.746857643
1112,5.71156311,-0.113084063,8.376470566,-50.15879059,-39.57133865,14.06935883
1113,5.354696751,-0.516290069,6.665930748,-49.32123566,-51.71202087,9.640028954
1114,5.556719303,-0.122665942,6.437787533,-17.67864418,-60.21857452,-0.930547893
1115,5.974758148,0.10110265,7.837138653,29.44599724,-54.2571373,-2.987460613
1116,5.320420742,-0.647782981,9.988578796,36.53282928,-52.86570358,1.996430159
1117,5.740951538,-1.127124548,9.886295319,24.07202339,-60.87908173,4.123373985
1118,5.29994154,-0.078282468,9.567234039,-2.222919703,-70.0213089,1.487624049
1119,4.728678226,0.863282025,8.77752018,-0.315458387,-73.37135315,2.12412715
1120,4.699671268,0.542607248,8.036808968,7.829047203,-74.10058594,5.815695763
1121,4.849238873,0.032593574,7.282549381,10.75886917,-76.00489807,10.08660984
1122,4.106969833,-0.228274763,7.285119057,10.42693806,-75.10936737,8.512066841
1123,4.24758482,-0.141567498,7.660435677,5.848651886,-73.77787018,2.376667976
1124,3.798804998,-0.098560654,7.977593422,2.765187979,-74.07167816,-4.446931362
1125,3.67126441,-0.57243818,7.567028046,3.521465778,-65.10331726,-6.124478817
1126,3.669040918,-1.068108559,7.160209179,3.469257116,-49.01425934,-5.263998985
1127,3.632335186,-1.542506695,6.855398655,0.859551728,-27.79201698,-6.380634308
1128,3.697788477,-1.554796457,7.014389038,4.223318577,-7.045602798,-6.966164112
1129,3.748646736,-1.310076118,7.072967529,13.36509323,12.23817253,-5.407058239
1130,3.387753725,-1.003114104,6.691371441,13.57259464,41.76730347,-5.464987278
1131,2.872267723,-0.734948874,5.698179722,16.02782631,66.81274414,-8.542421341
1132,3.248254776,-1.15505743,4.553608418,23.12623787,76.4726944,-12.88393974
1133,3.224109888,-1.276856542,5.287874699,13.10201454,76.47556305,-13.12777615
1134,2.501359224,-0.262143075,5.672551155,8.835289955,76.41072845,-12.45685482
1135,3.037063599,0.586041927,6.831532955,12.39195156,95.67073059,-12.33134365
1136,4.417675972,1.495977283,7.320394516,4.126202583,105.6470947,-6.703857899
1137,3.83679533,1.386184692,7.358397961,0.980152309,112.8403015,-0.172093049
1138,3.134743929,1.406521678,8.745051384,-6.750898838,117.9886093,-0.186271131
1139,2.941475868,0.882714033,8.778695107,-4.363510609,114.4577179,1.816293359
1140,2.640108347,0.247320443,9.092648506,-8.958023071,111.5067825,5.57626009
1141,3.384130955,-0.232254088,8.910665512,-5.929605484,111.0356979,7.548482895
1142,5.01028347,-0.765890241,8.905389786,1.443072319,102.1202469,1.472937942
1143,5.845088959,-0.504473329,8.623446465,1.911668777,87.8139801,-1.370079756
1144,5.880090714,0.07930246,8.641405106,4.378879547,75.01339722,0.456485093
1145,5.675925255,0.946306348,8.991327286,5.468532085,71.26131439,-3.567363024
1146,6.404658794,0.52360332,10.8538456,8.40195179,68.84695435,-12.66932487
1147,8.360927582,-0.795849979,12.76329136,18.54654503,52.4030838,-19.47416496
1148,10.258708,0.636948943,13.28819942,14.80053711,25.41086388,-13.01280785
1149,11.05708218,1.801146388,11.45166969,0.09677764,-11.85139275,-1.401777387
1150,10.31535339,0.242771655,9.855075836,10.49755764,-48.10957336,-4.322890759
1151,8.785435677,-0.567729831,9.571615219,31.23070526,-67.29205322,-9.455070496
1152,9.038191795,-0.17161046,8.76113987,22.85445595,-72.10549164,-3.648019791
1153,10.82050896,0.463797718,6.649918556,10.84379673,-63.79704666,-2.58370018
1154,11.91514492,0.713519752,5.133430481,1.928511858,-49.14977646,-4.845944881
1155,10.67425919,1.138720155,5.442190647,-43.09166718,-17.45867729,-3.949131012
1156,4.356781483,0.587671816,0.807391346,-66.23768616,-10.67065907,-10.57221508
1157,0.717017174,0.182678565,3.558843851,-16.94609261,-51.12030029,-2.067766666
1158,-3.905982256,0.876454592,9.027032852,-40.76935196,-21.57197762,0.443897009
1159,1.271025896,1.467977285,8.93431282,-31.45455551,-5.913770199,7.252250671
1160,5.251968861,0.051428452,10.42755985,-57.20346832,4.728779793,19.56817436
1161,7.61135149,-0.769994974,10.6667738,-52.69665146,8.591708183,16.2345829
1162,8.322620392,-0.178854138,10.2130661,-40.04797363,15.58550644,11.27548695
1163,5.842108727,-0.660587847,10.99237347,-39.55607986,23.14224052,11.01856709
1164,3.231398344,-1.406381249,11.12695885,-31.77653313,34.0227623,12.1538372
1165,1.515401959,-1.786852479,10.6501894,-27.70205307,37.2067337,16.82419014
1166,2.653477192,-1.794774532,10.16994381,-26.61974525,31.70485687,20.83651543
1167,4.192054749,-1.245365858,8.925234795,-16.54225922,23.75218201,20.54270172
1168,4.491558075,-0.995829999,8.555509567,-17.31765366,22.32085419,21.44530487
1169,3.010233164,-1.587227225,8.782011986,-9.718374252,36.23965836,21.46749115
1170,2.667543411,-1.011918068,9.042613983,5.374029636,41.92720032,14.56176758
1171,3.118320704,-0.346597224,8.877182007,11.07976151,43.60016632,4.345942497
1172,3.300607443,-0.397759229,8.386916161,4.190433502,44.04161072,2.347112894
1173,2.833178997,-0.925979257,8.635243416,-10.34004402,38.98874664,9.904067993
1174,2.427238941,-1.564234853,9.318086624,-19.49345779,34.62285614,16.14628792
1175,2.269690275,-2.351351261,8.886015892,-18.50946617,30.75510979,14.55834675
1176,1.876328707,-2.869332314,8.311118126,-7.887060165,19.27224731,8.084471703
1177,1.426571727,-2.523237228,8.273086548,2.682110548,5.11444664,2.183277845
1178,1.569488764,-1.575028658,9.097411156,8.876531601,-5.746064186,1.106456161
1179,2.172108173,-0.955779195,10.18655968,9.616451263,-12.16762638,2.664145947
1180,2.905772209,-0.721077681,10.83947659,5.8314147,-14.06762791,3.680496454
1181,3.011239529,-0.898308158,10.42050171,1.027871013,-18.11226082,4.754908085
1182,3.083547831,-1.442446351,9.473694801,-1.462936521,-24.66513443,5.517762661
1183,3.121273994,-1.494218588,9.05798912,1.715607405,-27.20269966,6.005208492
1184,3.231846809,-1.245075822,9.181427956,-5.550802708,-24.1739521,6.894774914
1185,3.810626268,-1.219789982,9.296216965,-15.88014412,-17.09635544,7.810109615
1186,3.612705708,-1.560726047,9.472147942,-14.67039108,-11.39534283,6.136683464
1187,3.563924789,-1.986912608,9.778362274,-2.401870012,-5.680539608,4.139762402
1188,3.36828804,-2.10897851,9.645160675,8.586115837,-4.72606945,4.585013866
1189,3.696390629,-2.244539499,9.663858414,16.30239868,-6.870376587,2.224439383
1190,3.834717274,-2.132384539,9.941231728,7.694440365,-0.296191692,1.203079939
1191,3.003254652,-1.283247828,9.692523956,-4.688559532,-7.092645168,-3.032928705
1192,2.703357458,-0.968402088,8.541715622,-18.02435303,-18.73687553,-4.970310211
1193,3.656374931,-0.784131289,7.231002808,-5.802976131,-25.67942047,-8.897409439
1194,4.28343153,-0.835464478,7.184875965,1.369783282,-22.23906517,-13.09609222
1195,4.874260426,-0.973453045,7.199195385,10.02807617,-24.33490944,-15.12215805
1196,4.919513226,-1.203463197,7.542400837,8.401092529,-24.45243263,-14.18635941
1197,4.621575356,-1.388904691,7.200764656,12.70897293,-29.61229515,-12.27010345
1198,4.416741848,-1.653522968,7.529430866,16.19631386,-38.73056412,-12.63411903
1199,4.265467644,-1.27483511,7.735212326,18.31855583,-52.909832,-16.10098839
1200,4.779823303,-0.529453397,7.669610977,11.57185459,-65.55653381,-20.0390892
1201,5.578932762,-0.281920016,7.35656023,23.82271767,-73.5776825,-20.74782372
1202,5.766515732,-0.598297477,7.873891354,43.57980728,-77.2651825,-20.92660332
1203,5.610260963,-0.131724417,8.547609329,56.37760162,-85.31092834,-16.87139702
1204,5.56897068,-0.069405645,9.196084023,59.8470726,-102.1868896,-8.865541458
1205,6.014723301,-0.605013967,9.620501518,51.0607338,-105.7902298,-4.091975212
1206,5.678583622,-0.84004426,8.577050209,37.06903076,-100.5238342,-2.158655167
1207,5.427027225,-1.208035231,8.804254532,24.20320511,-94.28040314,1.281830311
1208,5.098416805,-0.38880235,8.724862099,18.91237068,-95.47414398,4.803873539
1209,4.197082043,-0.779540122,8.795160294,17.17440605,-93.53418732,11.06031704
1210,4.334106922,-0.809216261,8.72922039,21.2476387,-91.32172394,7.135177612
1211,4.200902939,-1.355950713,9.009869576,27.94020653,-90.04437256,3.403419256
1212,3.963078499,-1.536665201,8.46632576,25.74466324,-85.53569031,-2.633590937
1213,3.338660002,-0.637945652,7.856387615,17.40965652,-72.66059875,-9.430047989
1214,2.992671013,0.697685659,7.521359921,4.406048775,-55.67027664,-9.933454514
1215,4.043305874,1.6011163,6.761134148,-8.805603027,-39.88371277,-3.732247114
1216,5.119475365,1.338831306,6.706987858,-21.34606361,-29.31032944,5.134909153
1217,4.499773502,0.032740906,6.754549026,-31.33880615,-18.6151123,7.825588703
1218,3.892575741,-0.680033207,6.583276749,-39.95059967,0.25970152,9.46621418
1219,3.489186049,-0.498162985,6.376205444,-42.562397,20.32918739,12.39686871
1220,3.849430799,-0.860270858,6.532318592,-43.35267258,36.61849594,13.524436
1221,3.394466162,-1.59057045,6.889778614,-50.21177292,45.86848831,7.463547707
1222,3.614655495,-1.854848742,6.668410301,-54.84522629,61.5459671,8.175898552
1223,3.583363771,-3.004443407,6.68870306,-48.42484283,72.76734161,-0.349065632
1224,4.650814533,-2.865772247,7.288455486,-26.08148384,92.95120239,-19.01915359
1225,5.500229836,-0.329901755,7.993304253,-8.335678101,109.8780518,-25.87604713
1226,5.292252541,2.037344694,8.573044777,-10.7744627,111.9239426,-13.73957539
1227,4.388371944,1.77475667,7.760825634,6.036787987,115.4126587,7.550237179
1228,4.005749226,-0.057229217,6.93275404,4.989955425,124.4960556,22.01868629
1229,4.47151804,-1.441847205,7.058271885,10.64382839,126.7166061,31.86053085
1230,4.614624977,-2.299079657,7.461407185,14.99364471,120.7945709,39.46056366
1231,5.057765007,-2.541580439,8.376338959,11.0772295,115.2627335,38.32376862
1232,5.4542346,-2.463204145,9.072505951,-1.675333381,92.80232239,34.37446976
1233,6.325906754,-2.245438814,8.810930252,-9.301535606,72.09893036,29.26405144
1234,7.650758743,-2.30619216,9.623270988,-9.124642372,56.96274185,23.85092163
1235,8.464752197,-1.647481918,9.482585907,-4.574939728,48.37681198,19.40958023
1236,8.589694977,0.473569006,9.401151657,8.514827728,52.49046707,11.65301704
1237,9.223372459,1.302676558,9.563684464,11.33297157,66.11985779,-0.912620425
1238,10.79690361,0.934893608,11.42393589,-6.712078094,73.28103638,-7.568993568
1239,12.03079319,0.051821377,12.35455704,-22.74419022,75.86573029,-13.78753376
1240,11.13053036,-0.429636896,11.86116505,-0.534581184,77.86808777,-19.65488243
1241,9.654572487,-1.072141051,10.05510998,-4.064383984,74.317276,-27.50459671
1242,8.641949654,-1.564570665,6.011301517,-16.03145409,69.46640778,-31.85656357
1243,7.728032112,-2.779963255,4.330521584,-20.2363224,75.34807587,-27.20495033
1244,7.277791977,-3.465157509,2.605790615,-30.72128296,76.44673157,-16.61049843
1245,7.41860199,-2.587474823,1.741602063,3.36043644,44.65327835,-10.51377678
1246,5.451453686,-0.892583847,3.02568388,18.48401451,6.841817856,-11.16411686
1247,1.906306863,-2.345175028,6.241514206,0.527532458,-15.37039185,-5.159266472
1248,-3.629422665,-2.781362534,7.913994789,8.592628479,-5.677818775,-1.131153226
1249,-7.77161026,-1.738920927,7.990145683,-0.166463345,-0.860554755,-0.054484621
1250,-3.730554342,-1.942179084,9.971055984,21.41776085,7.062599182,-1.394364238
1251,3.862964392,-2.38284564,10.91413307,34.23418427,11.85809517,-0.967581928
1252,6.256184578,-1.43361485,11.35645008,44.29437637,16.92632103,-3.478962421
1253,5.11947298,-0.187206492,12.62838078,33.19143677,18.56105804,-2.309880018
1254,1.970455527,-0.865856647,11.3583746,6.197394371,15.56177711,1.326508284
1255,0.029594865,-2.064044237,9.849500656,6.912063599,10.02823448,-1.672465324
1256,-1.482512474,-1.75965035,9.693730354,3.332699537,6.311751366,2.440391302
1257,-0.171831027,-0.476808697,9.421149254,-4.782070637,-2.60674572,6.074123383
1258,1.643001556,-0.508121967,8.908131599,0.066106446,-13.71173,10.89473248
1259,1.9014889,-1.76861155,8.88948822,5.981332779,-21.22424316,11.11498642
1260,1.828916669,-2.159203291,9.089156151,22.51761436,-24.36154938,2.05066967
1261,1.769970536,-1.464395046,9.601799965,33.02151871,-21.06443787,-6.03142786
1262,2.022962332,-0.366792321,9.667492867,36.09726715,-18.3331871,-7.717133045
1263,2.174202919,0.266431749,9.354794502,30.54402542,-15.45748806,-4.542117119
1264,1.752341151,0.048799381,9.435487747,18.19739914,-14.79682446,-0.852155387
1265,1.612097263,-0.501128018,9.751214981,9.013309479,-15.46125507,1.437129974
1266,1.655121446,-1.524664998,9.433727264,6.966843128,-19.21497536,0.425965399
1267,2.046603203,-1.641838789,9.521499634,9.880501747,-21.96792221,-2.23033905
1268,2.161777496,-0.969599247,10.01924515,12.67050076,-20.95355606,-2.886038303
1269,2.060964823,-0.404544204,10.30198097,11.34042358,-24.3931675,-3.688872099
1270,2.04493928,-0.250516325,10.35435677,8.959587097,-31.21530724,-3.207330227
1271,2.151015997,-0.225927323,10.31449032,8.339043617,-39.50075531,-0.408403277
1272,2.354961157,-0.309030771,10.31636238,8.726927757,-45.45524979,3.409626961
1273,2.886826515,-0.51686722,10.20597649,8.452697754,-43.18909073,6.039515972
1274,3.024873257,-0.733693779,10.59842777,5.423700333,-39.76299667,6.834673405
1275,3.631064653,-0.625545979,10.21576023,-0.059146378,-34.8950119,4.92784071
1276,3.997928858,-0.466543913,9.895749092,-3.240986109,-33.89160919,-0.029051319
1277,3.672155619,-1.046438694,9.925124168,4.410618305,-31.64434624,-4.57035923
1278,3.676320076,-1.291414142,9.728225708,9.579654694,-24.96596527,-6.213746548
1279,3.793523788,-1.073133707,9.459033012,10.79730415,-23.39981461,-7.814268589
1280,3.787723541,-0.872962236,9.489078522,24.38534737,-19.74782562,-7.579266548
1281,3.598363876,-0.686735511,9.505620003,32.61307526,-21.94493294,-4.591236115
1282,3.562365294,-0.285339922,9.653580666,29.26286697,-28.49625397,-4.266863823
1283,4.114944458,-0.289184034,9.492993355,28.78964424,-36.78733063,-7.204031944
1284,4.676441193,-0.102783635,9.29420948,33.86893463,-40.61935043,-8.420548439
1285,4.841361523,0.797595024,9.211803436,31.95771408,-38.69945526,-8.056552887
1286,4.912268639,1.072021127,8.990632057,30.58747673,-36.44174576,-5.538350105
1287,4.85623312,0.710336328,9.017576218,31.11136818,-36.82663727,-3.643282652
1288,5.201529026,0.376024097,8.488652229,30.64214134,-41.1113205,-0.206184134
1289,5.205980301,0.503693283,8.221762657,28.72548485,-52.40136719,1.322841883
1290,5.280144691,0.601126194,7.964516163,32.17786789,-56.08991241,2.282490492
1291,5.297819614,0.265147984,7.813099384,44.08132172,-60.73024368,-1.116998315
1292,5.908760548,0.240848422,7.641854286,45.6689682,-62.37120438,0.973046899
1293,6.15561533,1.191052437,7.491078377,14.82535648,-55.82246017,6.005416393
1294,5.98499918,1.451413155,6.889920712,-8.564339638,-63.77599716,2.027927876
1295,6.123326302,1.302276731,6.575073242,-13.6386385,-71.45171356,-2.665505409
1296,6.449698925,1.083178163,7.256358147,4.190497875,-67.81640625,-0.985227823
1297,6.041358948,0.425292253,9.083874702,6.589184761,-69.3352356,2.678301811
1298,5.57455349,0.618998528,8.39986515,-14.17321396,-59.8791275,2.768628836
1299,4.70252943,0.845760882,7.124796867,-22.96273041,-50.1799469,4.004012108
1300,4.429018974,0.35269025,7.539185047,-14.24696541,-55.03870773,8.280233383
1301,3.727360487,0.357907951,7.74242878,-16.02538681,-63.37273788,9.074730873
1302,3.132267714,-0.067867085,7.895227909,-10.666399,-64.89231873,7.869033813
1303,3.523671389,-0.749062479,7.764818192,-6.560240746,-66.73596191,3.034231424
1304,4.096898079,-0.23352553,7.798532963,-5.412138939,-69.52586365,1.14947927
1305,3.676121235,0.583012223,8.312482834,-5.043880939,-67.10538483,0.750848353
1306,3.630529642,0.809345305,8.04731369,-7.482655048,-54.15068817,-1.011091113
1307,3.465295792,0.805672467,7.536385059,-12.51313686,-38.0230217,-3.883234024
1308,3.339537621,0.880752742,7.05965662,-20.03322601,-19.45635033,-6.62337923
1309,3.766198874,1.161973834,7.02579689,-34.7267189,1.795906425,-8.149555206
1310,3.618121624,0.708375335,6.49168396,-44.21651077,31.30626488,-3.079593897
1311,3.594829321,-0.331459522,6.162489891,-54.00585938,56.11984253,1.994810939
1312,3.714030981,-0.816176414,6.267482281,-59.79737854,69.92595673,6.579139709
1313,4.006322384,-0.786617398,5.743100166,-55.31134033,79.60079956,3.828847408
1314,3.346643686,-0.945765018,6.262216091,-42.06135941,90.02423096,3.57979393
1315,2.365463734,-0.462937623,6.707171917,-31.38749695,102.8928223,1.916522741
1316,2.801971674,-0.286100239,7.521968842,-11.89207172,109.9639435,2.238505602
1317,2.222251177,-0.490603775,7.617078781,5.075261116,114.0639496,5.0580616
1318,2.602652788,-1.201227665,7.482916832,17.64746857,120.3971939,5.274506569
1319,2.996632099,-1.094227314,7.898490429,21.76935768,122.7422333,9.068664551
1320,3.884655714,-0.989894688,8.406938553,28.46019363,114.6530457,12.49008942
1321,4.581288338,-0.7314381,9.177007675,44.85828781,104.1825409,15.67454529
1322,4.779092312,-0.967840433,9.28976059,39.85581589,97.71456909,22.8885498
1323,5.46020174,-1.371689081,9.599625587,25.87273598,88.1071701,24.16570854
1324,7.072609901,-1.536128163,10.62385941,12.90764427,73.49868774,17.37341309
1325,8.668262482,-0.697941303,11.78428459,18.88432884,60.83249283,4.491833687
1326,9.507182121,1.42571938,12.2539835,40.35428619,59.26412582,-1.652721643
1327,9.499539375,2.664942503,12.91674232,39.47352219,64.30132294,-3.490152836
1328,9.344669342,2.430577278,11.86227417,2.579118252,72.30096436,-3.237613678
1329,9.961832047,0.77043736,9.075442314,-5.832047462,62.54949951,-2.224948406
1330,11.14385986,-0.210466802,9.893106461,35.94429016,56.64587784,-2.060029984
1331,9.304458618,0.469968855,11.17631435,45.86302185,57.05528259,-10.69657516
1332,8.574219704,0.784421861,9.053484917,12.96191311,39.97664642,-17.8543148
1333,9.353214264,-1.277163863,5.362127781,-4.136481285,35.73123932,-17.95897865
1334,9.328412056,-3.068914175,3.441085339,-4.71774435,26.06033897,-22.55947304
1335,7.716659069,-2.085537195,3.165330648,1.316754699,12.84117603,-33.65603638
1336,5.303673744,0.833551347,2.747521162,-1.335217714,-5.987332821,-41.52645874
1337,1.827796936,0.843412519,4.143733501,3.921868086,-46.3417778,-25.63179779
1338,-2.741784811,-2.993455172,5.999875069,-11.2017107,-50.80284882,-17.04148102
1339,-8.763819695,-2.433777094,6.426256657,-18.54994202,-36.66857147,-18.12981415
1340,-4.280419827,-0.072442509,8.601288795,-38.35168839,-39.80022812,-9.40255928
1341,4.564651966,2.582812786,10.54360962,-15.77888298,-36.36368942,-10.52540302
1342,6.921444416,6.075963974,11.98310184,-19.69220352,-29.11521149,-10.67968178
1343,6.59243679,5.388581276,12.93310165,-44.63612747,-21.5533905,-10.11381149
1344,3.851099014,1.864076257,12.86704159,-63.20517731,-13.2733984,-0.042274378
1345,2.07528162,-2.198005438,12.73827076,-54.60488892,-11.31663704,9.898657799
1346,0.023690931,-4.008657455,12.64018917,-35.68106079,-19.49262047,10.8449955
1347,0.23090294,-3.153287172,11.06709385,-19.9216671,-40.20982361,3.466421843
1348,2.024576187,-1.237357259,9.499832153,-9.482680321,-63.37795258,-1.332769632
1349,3.048274517,0.095997311,8.965697289,-8.712260246,-79.5269928,2.061241388
1350,3.162579536,0.252371013,9.096310616,-6.904069424,-83.53111267,8.291435242
1351,3.850147247,-0.020469693,8.22807312,-0.294686288,-74.18797302,9.04727459
1352,4.293250561,-0.245680839,7.659467697,3.386954784,-61.96883774,7.024008751
1353,4.608596802,-0.298912048,7.489260197,4.97902441,-50.12540054,1.324943781
1354,4.708353996,-0.617760956,7.526456356,2.905564785,-38.88526535,-0.584049463
1355,4.437648296,-0.379826009,8.154255867,1.948005676,-29.796978,3.1261549
1356,4.10601759,-0.162695363,8.735552788,-2.093925714,-23.75520897,7.802041531
1357,4.02722311,-0.286807269,8.651506424,-4.410533428,-19.93422699,8.546792984
1358,4.546400547,-0.846650362,8.743009567,-2.177293777,-18.78917694,6.652792931
1359,4.50292635,-1.264997721,9.16179657,3.035299778,-17.04230309,4.782087326
1360,4.520791531,-1.169629931,9.621254921,10.101511,-18.69370842,2.857625961
1361,5.183021545,-0.50187403,9.688715935,14.51747704,-12.64164448,-0.237500459
1362,5.61062336,-0.503774345,8.70115757,7.639565945,-1.531069994,-2.867771387
1363,4.818881989,-1.179853797,8.666732788,4.236705303,1.370311499,-2.083093643
1364,5.319187164,-1.920667529,8.77218914,10.90629005,4.057476521,-0.772601068
1365,5.522243977,-1.727324963,8.64024353,22.22379684,11.57234859,-2.745098352
1366,5.494825363,-0.723008096,8.821255684,24.49123383,13.9630909,-5.71469593
1367,5.262348652,-0.062741689,8.928022385,17.00342178,15.76774788,-6.815111637
1368,4.644937038,0.087699167,8.978627205,19.86624527,10.70742226,-6.920340538
1369,4.661589146,0.424789399,8.901111603,16.60037804,0.021642756,-5.553127289
1370,4.875409603,0.203633487,8.932379723,9.917143822,-10.98897934,-4.11550951
1371,5.33620739,-0.290720284,8.472513199,8.896561623,-20.70113564,-5.289818764
1372,5.365237713,-0.200359777,8.255748749,15.08220577,-26.85368347,-4.420145988
1373,5.457348347,0.127880007,8.059123993,16.07551003,-31.0941124,-4.068422318
1374,5.585160255,0.14401789,7.836726665,14.38080311,-32.80807877,-2.576284409
1375,6.030067444,-0.113351479,7.877572536,14.43353558,-35.22073364,-0.967236519
1376,6.249730587,-0.381123602,8.040493965,21.72371483,-38.55700302,0.270036578
1377,6.142656803,-0.128422469,8.555973053,29.2327652,-44.75668335,-1.62334919
1378,5.287437439,0.056108423,8.07012558,26.33030319,-53.47564697,-1.382802248
1379,5.347177029,0.00481499,7.781495571,42.27342224,-79.54943085,-3.089473009
1380,5.79872036,-0.010037787,7.511578083,30.51516533,-47.97237015,-1.657077074
1381,6.242698669,-0.040726535,6.88096714,28.62477303,-18.8361187,-2.265951872
1382,6.509459019,0.789255023,7.293616295,30.07965851,-24.91739845,-3.721327543
1383,6.220545769,1.303449988,7.731472492,25.91473198,-30.00881958,1.100346684
1384,5.388985634,1.844102263,8.197072983,24.60223007,-37.67782974,5.565493584
1385,4.481526852,1.293053389,8.413818359,16.73012161,-42.82503891,4.100252151
1386,4.234538555,0.106006004,8.206092834,14.94934273,-50.64154816,0.778569579
1387,2.9976933,-0.441431195,8.040502548,14.53944778,-60.8841362,0.44550702
1388,2.238217831,-0.569612563,7.846293449,16.96388435,-60.89342499,-1.147663474
1389,2.208711386,-0.301132321,7.358588696,12.54170132,-53.91715622,-3.401255846
1390,2.855958223,0.787092507,7.125612259,7.57451582,-46.58000565,-6.961004734
1391,3.41021204,2.044574976,7.39220953,-2.776017427,-41.04848862,-7.830023289
1392,3.354015827,2.039439201,7.473424435,-16.70429802,-30.58905411,-6.012550831
1393,3.218276262,1.072509766,7.093261719,-26.77733231,-12.58102798,-5.750830173
1394,3.546476841,0.502461672,6.5680933,-32.35050583,6.350475788,-4.654492378
1395,3.445749283,-0.381968558,6.538658142,-30.11205673,19.10256195,-2.380205154
1396,3.572142363,-1.08776176,6.660829067,-35.8064003,33.26554108,-1.322823763
1397,3.95264411,-1.056028843,6.503059864,-30.87078857,43.29396057,-4.109425068
1398,3.504289389,-0.620803475,6.624987125,-26.22415543,55.0818367,-4.070788383
1399,3.508410692,-0.010915305,7.110804081,-32.64464569,62.78242493,-3.003852606
1400,3.832035542,0.44404456,7.633862019,-36.21863174,70.89072418,-4.169053078
1401,3.676070929,-0.124493375,7.204537868,-37.40504074,78.23685455,-2.111458063
1402,3.073622227,-0.351512462,7.715322971,-38.36990738,83.83368683,2.863880396
1403,3.287143469,-0.390448511,7.623105049,-27.04076004,84.00629425,6.494586945
1404,3.548345804,-0.555100799,7.73696804,-18.1112175,82.30858612,7.501853943
1405,4.517718315,-0.698281765,7.942977905,-13.85689449,75.30258179,8.498995781
1406,5.269723892,-0.779022992,7.809502125,-7.090658665,68.31166077,14.04856491
1407,4.874480247,-0.81389755,8.84740448,9.099989891,63.42913437,18.98532677
1408,5.101690292,-0.67810607,8.990560532,15.83927059,51.8861618,21.88947296
1409,5.400407791,-0.510928512,8.50459671,21.62668228,34.48596573,22.49850655
1410,6.228914738,0.460044622,9.000984192,25.74798965,15.31202602,17.41862869
1411,8.183215141,1.072641253,10.69677925,28.70497704,6.829101086,13.41853046
1412,10.82496643,0.591976762,12.47208405,21.58541298,3.177824736,7.543824673
1413,13.4295702,-0.292191625,12.22835732,9.952078819,-10.36774063,1.59261179
1414,13.77215862,-1.044449568,10.44757652,5.810523033,-35.37337494,-1.767392993
1415,13.05128956,-1.02099359,8.630928993,4.454046726,-55.55234528,-5.712585449
1416,11.80273151,-0.597320259,7.787554741,7.972619534,-31.8409996,-17.49694633
1417,11.50181198,0.193165362,5.694652557,10.28853989,15.31607437,-24.85928917
1418,12.71078396,0.140649796,5.124907494,8.971006393,44.07186508,-23.4144783
1419,13.08805656,-0.694315612,3.420740366,11.65160465,55.79429245,-16.81716728
1420,9.985193253,-0.2136942,1.312979817,23.22446251,51.18902969,-9.938396454
1421,7.142912865,0.372735441,2.333138227,-0.592227936,46.64974213,-8.748618126
1422,3.59696126,-1.203480124,2.483446836,-36.56118774,29.3730545,-14.45715046
1423,-1.119875669,0.341507345,6.85873127,42.44379425,21.28046036,-20.53765297
1424,-4.426548958,1.471037984,8.577198029,24.09112549,18.07945824,-13.64321327
1425,0.583298922,2.406035185,9.043663979,-2.060063839,17.78745079,0.226544604
1426,5.853155136,0.725168347,10.48172379,-1.760038137,25.51890945,-1.094708443
1427,8.463657379,0.142246336,10.51014042,2.536482811,26.12377357,-3.007520676
1428,7.154997349,1.480544686,11.01342106,-7.570421219,24.84139442,2.854900837
1429,4.386779308,1.061158776,10.38179398,-9.304636002,24.62062645,4.926653385
1430,1.368811131,0.579590142,9.736721992,0.177163363,23.36763382,1.638741851
1431,0.223500296,0.483985901,9.270319939,3.483240604,16.04335976,-2.441513538
1432,1.775142312,0.052992094,8.7819767,9.499306679,5.225876331,-5.466002464
1433,3.227301836,-0.062495597,8.42606926,15.4382515,-7.146290302,-4.087899685
1434,3.369799614,0.447013527,8.597558022,18.64095688,-12.82345104,-4.957494736
1435,3.026444674,0.829728365,8.894213676,18.46784019,-12.41404247,-4.055848122
1436,3.294231176,0.945894301,8.873286247,13.04994011,-10.0414629,-1.920768976
1437,4.475918293,0.902339041,8.796626091,1.160665393,-6.728796959,0.406409591
1438,4.560516357,0.309619576,9.010895729,-2.464767933,-2.448414564,1.844306707
1439,3.870360374,0.260442197,9.518569946,3.165384293,3.940668344,-0.128390089
1440,3.63752985,0.522729695,9.982707024,3.551317453,8.886816025,-4.492539406
1441,3.323979139,0.436735332,10.32275677,1.337714076,13.57835388,-6.536552429
1442,3.095152855,0.026574414,10.52679634,3.610792875,16.96851158,-8.145443916
1443,3.399829626,-0.332421601,10.380023,8.426859856,15.57404232,-10.27322388
1444,3.506927013,-0.24048683,10.19369507,13.78963852,8.263550758,-10.2424612
1445,3.431542635,-0.39536947,10.15914154,6.364066124,3.767321825,-5.832685947
1446,3.522241116,-0.095497295,9.887269974,-1.3207829,3.477519751,-4.282174587
1447,3.719478607,0.585352778,9.260206223,2.102783442,2.615216732,-5.176288605
1448,4.027031422,1.427006721,8.849617958,-3.92170167,2.466919661,-6.127864838
1449,3.116445541,1.305902123,9.073788643,-7.939445972,0.161539331,-2.059869766
1450,3.399716139,0.952118456,9.062849998,-11.3154211,-2.148541689,2.991526365
1451,3.804295778,0.71920687,8.628914833,-11.99472237,-3.997792959,2.818589926
1452,4.059430122,0.250682175,8.728785515,-6.100465775,-1.747433186,-1.007379651
1453,4.169388771,0.272223055,9.067338943,-7.852502823,0.174563393,-3.109836817
1454,3.903449059,0.634929657,9.149282455,-14.49540997,-3.030324459,-3.749913454
1455,3.69806242,0.462995231,8.835102081,-16.2473774,-8.060024261,-1.265006185
1456,3.604938984,0.037109055,8.779895782,-13.39333534,-11.19967079,0.194989666
1457,3.974551678,-0.143013567,8.682470322,-8.090733528,-16.89244652,-0.659764707
1458,4.30405426,0.268217862,8.567160606,-5.105102062,-24.16241264,-1.713051438
1459,4.585843086,0.192654699,8.396055222,-7.980471611,-26.11735916,-5.160966396
1460,4.64641428,-0.033249602,8.542503357,-4.467219353,-26.69792938,-8.527561188
1461,4.910527706,-0.230181903,8.251289368,1.58429122,-27.73623657,-9.394721985
1462,4.902358055,0.131282538,7.805781841,5.521354675,-33.29336166,-11.2131691
1463,5.104475021,0.755025864,7.485471249,2.884981632,-41.20185089,-12.02925491
1464,5.27960825,1.295539737,7.1518116,-2.13028121,-43.96491623,-10.64755154
1465,5.355885029,0.66217494,7.488061905,-1.378633022,-45.02643967,-8.425226212
1466,5.377579212,-0.245402947,7.947294235,15.22814941,-41.49487686,-5.351266861
1467,5.301579952,-0.821813881,8.390367508,40.79522705,-42.34726715,-5.857599735
1468,5.092493057,-0.034174725,8.816186905,57.60440826,-57.43854523,1.836819053
1469,4.942822933,0.431408435,9.13621521,31.0882206,-66.19680023,15.98361969
1470,4.965632915,0.237599999,8.690692902,4.023122787,-47.92353821,22.80410576
1471,4.554496288,-0.0386355,7.803359985,-32.63472748,-19.55068398,22.43104935
1472,4.803120613,0.69945693,7.42967701,-25.09860039,-16.80444145,21.78661537
1473,4.521887302,0.180699736,7.310249805,-23.34334946,-30.37380791,27.91543579
1474,4.022447586,-0.61596185,7.366881371,-22.5683651,-40.08959961,30.50814629
1475,4.256837845,-0.272538632,7.141960144,-29.93115616,-40.89148712,29.30283737
1476,3.60055542,0.070379466,7.179105759,-39.17490005,-39.27601624,29.90809822
1477,3.042067289,0.484374464,7.336551189,-52.59840393,-35.85997391,31.34334564
1478,2.509604454,0.736656666,7.781130314,-58.52827454,-32.63285446,33.17738342
1479,2.244588137,0.720380902,7.795266151,-61.87610626,-27.82859993,34.8290596
1480,2.332270145,0.276749671,7.648635864,-67.01641083,-22.85393143,33.15023041
1481,2.56845665,-0.350401521,7.403294086,-62.56842041,-16.84635925,30.96502113
1482,2.651228905,-1.36777401,7.11566925,-57.31865311,-6.593877316,26.26409721
1483,2.487293005,-2.047410488,7.157194138,-49.21938324,7.940088272,20.44961357
1484,2.637756109,-2.132228613,7.321340561,-45.39361572,19.87721252,15.86690521
1485,2.851443768,-2.291406631,7.454447269,-35.24692917,29.13532257,14.6605978
1486,2.779466152,-2.538107634,7.236246586,-20.65592575,38.85559464,19.48280907
1487,2.301036596,-3.048854351,7.047943115,-4.411570072,52.37078857,23.5036087
1488,3.39037323,-2.789340019,7.694652081,4.653816223,51.60887527,22.31951714
1489,2.994820595,-2.202614784,7.670794964,6.970063686,57.09466934,21.70532227
1490,2.887860775,-1.705369711,8.064188004,6.364228725,64.25510406,17.24604607
1491,3.100440502,-1.980938077,8.484204292,-6.964438438,71.58036804,16.51336288
1492,3.306020737,-2.831826448,7.977662086,-13.68059826,74.08850861,15.55258465
1493,3.762800217,-2.27075839,8.192200661,-6.895320415,69.6420517,16.19309616
1494,4.612221718,-0.754322648,9.571245193,-12.3645277,65.9808197,16.60903931
1495,3.800591469,-0.634581745,9.824447632,-14.89122486,59.6546936,16.11274338
1496,3.247622013,-1.645722151,10.00955296,-5.079284668,57.72154617,11.97045803
1497,3.437770844,-2.140664339,10.22249699,-0.908094585,52.29576874,11.86318684
1498,3.311228275,-2.443372726,9.046323776,11.60388947,42.46406937,7.851922512
1499,4.298771381,-1.73924005,8.230213165,30.46690559,32.87240601,3.338267565
1500,4.752719879,-0.476682067,8.464708328,38.53000641,28.54174995,3.345346689
1501,5.726788521,1.084597468,9.562047005,39.00677872,32.63502502,6.81895113
1502,8.525140762,1.46406734,12.42323685,44.89956665,41.97524643,10.6408577
1503,11.45568275,0.663617849,14.73691559,64.76837921,44.66133499,6.528167248
1504,12.55929184,-0.829799831,13.79059982,66.77472687,20.49106979,8.464722633
1505,11.29094315,-3.12797308,10.42056847,47.1026268,-25.21969604,13.95269489
1506,8.822793961,-4.739476204,7.885515213,37.01587677,-72.25679016,14.37922382
1507,8.225873947,-3.710573435,6.672408104,41.80908585,-70.67536163,4.2255373
1508,10.06611729,-1.199809194,6.572362423,39.7588768,-24.24014091,-7.047932625
1509,12.75672722,-0.285208583,5.338464737,5.732831478,2.088000059,-14.78311825
1510,12.65222168,-0.835552096,4.955307484,-37.0315361,38.12908936,-4.630867004
1511,5.238363743,-2.642368555,-0.80875802,-41.19061279,20.43879128,-0.657617271
1512,0.885980189,-1.898411751,3.003307819,10.819911,-19.22918129,-0.459627062
1513,-0.576129317,1.111177087,6.708093643,-36.20339966,-17.40969658,0.610418141
1514,-0.219052941,-0.103540316,8.770676613,-50.1415863,0.06906525,-1.518455863
1515,1.9623276,-0.116417632,9.246788979,9.57144928,12.13407898,-4.744481564
1516,6.43686676,0.617787361,10.65690136,14.04805374,12.75404739,8.850577354
1517,5.505054951,0.493452728,11.95914841,-30.75525284,33.98297119,3.358803988
1518,5.734706402,-2.511156797,9.293601036,-20.24650955,31.39717484,4.993528366
1519,3.963686228,-4.458846092,8.586361885,12.30857277,24.34853172,0.994441211
1520,1.726227045,-3.600192547,9.257911682,45.57585907,17.21395111,1.055674553
1521,-0.55921483,-2.12442708,9.066456795,61.16002274,9.74968338,4.670795918
1522,-0.070420921,-1.373833179,8.590846062,52.72305298,-0.620288193,8.377946854
1523,1.955756664,-1.086627722,8.514006615,45.87998581,-7.811069965,8.8700037
1524,2.968449593,-0.743569374,8.155536652,43.40174866,-16.89228439,7.884905338
1525,3.073647738,-0.165444046,7.58206749,42.36383057,-22.31769943,6.761347294
1526,3.317175627,0.150114223,7.812038898,41.23815918,-24.90085411,6.247361183
1527,3.08055234,0.011426754,8.948262215,32.98183823,-22.13644409,5.789834499
1528,3.200636625,-0.10011363,9.725123405,18.42045021,-18.30746269,5.858528614
1529,3.631764412,-0.487315178,10.03821182,7.808359623,-13.20293045,4.3094697
1530,3.44897747,-0.732771397,10.02940655,8.049191475,-9.239178658,1.715641975
1531,3.552668333,-0.65537101,10.29186153,11.92598438,-5.619115829,0.149501428
1532,3.591831446,-0.799755573,10.457654,12.09856224,-4.655975342,-3.029516459
1533,3.398196936,-0.991750479,10.29935455,18.94574547,-3.453397751,-9.828971863
1534,3.822911263,-0.344506234,10.16525745,29.35090828,-1.604698539,-10.46270084
1535,3.807415009,0.198117673,9.933011055,30.84287071,1.468880653,-6.517871857
1536,3.545666218,0.392049283,10.05080891,27.22696114,2.469032288,-3.032391548
1537,3.379697323,0.084559433,10.05586052,20.85730934,2.485767365,-1.071015954
1538,3.709944248,-0.378245652,10.10721684,21.43628693,-0.333228111,-0.215179026
1539,3.467484951,-0.619288564,9.861603737,27.25180626,-3.749395132,-1.787777543
1540,3.389942646,-0.594162285,9.444061279,28.56789207,-8.213255882,-2.573936939
1541,3.634619951,-0.226951987,9.026707649,22.7582016,-10.13467979,-2.574895382
1542,3.872109413,0.07484813,9.091028214,17.63860893,-10.16098881,-3.921111822
1543,4.007631302,0.143922299,8.935501099,15.60028839,-7.714252472,-3.760249376
1544,3.815830231,-0.307452381,8.581695557,22.16176414,-3.948032618,-6.923721313
1545,4.406574726,-0.388304323,8.032546997,24.22626877,-7.26324892,-9.821233749
1546,3.823846102,0.460035563,8.401639938,6.724718094,-3.482412577,-8.181434631
1547,2.855363607,1.45004189,8.990169525,-9.179462433,7.018498898,-9.576742172
1548,4.382877827,1.181484342,9.106081963,-13.22374725,5.319641113,-6.7590065
1549,4.210905075,0.42478925,9.410717964,-10.99407196,-4.557712078,-3.397545815
1550,4.129070759,-0.049013551,9.651626587,-2.376315355,-10.48845005,-4.806346893
1551,4.464260578,-0.750773728,9.853130341,3.645817995,-17.16983032,-5.940289021
1552,4.879920483,-0.567774475,9.128574371,5.307760239,-27.10629654,-5.369532108
1553,4.841255188,0.213720292,8.467660904,12.63626003,-36.50352478,-3.051839828
1554,4.832984924,0.249374285,8.213114738,25.55718231,-41.21164322,-1.729979277
1555,5.008816719,0.074142963,8.533871651,34.57526016,-46.49960327,-3.960660219
1556,5.647520065,0.272840917,8.567811012,31.7427845,-50.09596252,-6.748615265
1557,5.701620579,0.639817059,8.215107918,18.07890129,-53.03046799,-6.574014664
1558,6.102572918,1.223142385,7.469024181,6.35593605,-58.97618484,-8.968766212
1559,6.238509178,1.352742553,7.240932465,14.87409306,-55.788414,-10.75432205
1560,5.533771992,0.669768035,7.703624249,18.60304832,-60.71954727,-13.4861002
1561,4.689457893,-0.552898586,8.254982948,32.45482254,-79.79923248,-18.10927773
1562,5.386989117,-0.263432175,8.26646328,33.01686478,-81.88224792,-23.08696938
1563,5.773242474,0.949237227,7.849592686,29.27933121,-68.33476257,-23.53588867
1564,5.84963274,2.358144999,7.643980026,27.90004349,-57.27402496,-20.11416626
1565,4.817904472,2.46454978,6.238253593,30.1776371,-43.6203537,-15.27664566
1566,4.643368244,1.606212258,6.480523109,28.0850544,-38.03125381,-9.069382668
1567,5.212843418,0.802835643,7.051896095,24.50549698,-41.05395508,-7.678205967
1568,4.368924141,0.772603631,6.901812553,21.43334007,-49.57419205,-7.517975807
1569,3.565516472,0.553364336,7.352554321,22.59007263,-50.90330887,-4.373986721
1570,3.41804719,0.572987735,7.41285181,24.36774254,-50.48082352,-1.177217484
1571,2.93915391,0.539073527,7.708027363,27.70027542,-47.14772415,2.152667761
1572,3.061716795,0.341976762,7.686234474,27.07634163,-41.43665314,5.646343231
1573,3.008147478,0.31205079,7.542542934,21.7732029,-31.75655937,7.26701498
1574,3.407352924,0.855962813,7.383298397,17.19337082,-17.77291489,5.839990616
1575,4.044692516,1.260469198,7.266921043,6.184494972,-6.8314147,1.972562551
1576,3.340792656,1.006829619,7.121683598,-2.738119364,1.696918249,-4.170023441
1577,2.346285343,1.248771071,6.90217638,-15.1807375,18.55129242,-7.512291908
1578,3.608957529,1.446566701,6.638197422,-24.80761909,34.82196045,-9.752323151
1579,4.129414558,1.015245438,6.599308014,-28.93086815,38.73239899,-14.74571419
1580,3.428167582,0.802278817,6.749508858,-30.78469849,44.14032745,-19.38609314
1581,3.50274086,1.575012088,6.9169631,-36.33398438,55.82042694,-20.74435616
1582,3.871468067,2.691604614,7.979530334,-35.53536224,59.82744598,-22.33924675
1583,3.430387497,2.854198456,8.946946144,-16.70590591,61.9343605,-17.65488434
1584,3.40423131,1.031683445,9.283963203,-5.672023296,69.36235046,-7.775874138
1585,3.647870302,0.355115294,8.704931259,-8.702235222,74.2594223,-4.584514141
1586,3.797023058,0.500968456,8.136743546,-12.75567436,77.10328674,-2.454511642
1587,4.191973686,0.77463001,8.02529335,-6.501717091,75.6984787,-3.269892454
1588,4.666511059,1.270392299,8.340881348,-8.461425781,78.56830597,-5.240519524
1589,4.904949188,1.465211034,8.636328697,-11.57776546,81.91260529,-4.871736526
1590,5.388034821,1.489239931,8.544939995,-18.7014389,77.7281723,-1.959293842
1591,5.796229362,1.927353978,8.736879349,-23.24122238,66.90536499,-1.606168628
1592,6.953118324,3.071192741,8.049760818,-28.59951019,51.50048828,-2.478027344
1593,9.126383781,3.711677074,9.953586578,-42.15552521,48.61349487,-5.73663187
1594,11.41083717,2.454304457,11.89463043,-34.6515274,58.68447495,-20.02612305
1595,13.92411423,1.059069991,10.82295036,2.8895576,48.95171738,-32.44622421
1596,14.94130421,0.297011644,9.090719223,0.41418469,24.54363632,-23.88344765
1597,12.3650341,0.780136704,8.653485298,1.809564352,10.92551613,-11.84019089
1598,9.302297592,-0.23418507,7.964694977,16.96686363,-1.818651676,-12.5685358
1599,9.071937561,-0.333458781,7.41172266,22.91662788,-13.48486805,-15.28074551
1600,9.32962513,0.158153772,6.477267265,23.74806595,-25.07944107,-17.84136772
1601,9.568249702,2.301343203,5.604019642,28.15275764,-32.87861633,-20.43851662
1602,9.413208008,3.829836369,5.51083231,15.50802517,-3.023927927,-25.27246666
1603,4.212230206,3.248849392,3.783084869,-98.21269226,6.057161808,-23.98846054
1604,1.808672786,2.141101122,0.538037837,-14.5119772,-40.97343826,-22.63137436
1605,-3.337966204,-1.158280253,6.901958942,-3.909371853,-19.3166008,-17.55353546
1606,-1.806406379,-0.703745246,7.683047295,-9.82231617,-17.39700508,-11.70250893
1607,2.820322275,-0.858521223,8.138169289,-14.06756973,-5.275127888,-13.80679417
1608,6.684859753,2.129646063,11.44000244,24.92310715,9.264639854,-22.65185928
1609,8.87318325,4.693561077,12.72668457,13.22826958,22.01075363,-15.2780695
1610,6.924116135,2.439576149,11.91617584,-5.247460365,26.14273071,-5.145828247
1611,4.330654621,-2.616626263,9.521573067,3.920197248,22.8022995,2.119237185
1612,1.523723125,-2.698918819,8.833669662,15.2656641,19.41805649,1.932123899
1613,0.816405952,-0.573253691,8.620707512,15.81101036,11.85886192,-4.056410313
1614,1.713009596,1.269266009,8.689170837,16.59917641,0.118330814,-8.053865433
1615,2.768597603,2.832295656,9.422021866,14.19379044,-9.160756111,-5.301315784
1616,3.370046854,2.600221634,9.511773109,0.685690999,-16.54582405,1.76072073
1617,3.604394674,2.262597322,9.36236763,-7.428636074,-19.86820793,7.43176651
1618,4.0656991,1.497054458,9.01347065,-10.07945156,-16.05678749,9.039761543
1619,4.429526806,1.78929472,8.886399269,-9.273450851,-10.39112663,8.478143692
1620,4.947450161,2.010046721,9.008552551,-21.22643089,-5.169068813,8.358899117
1621,4.553261757,1.641247153,9.189031601,-42.84114838,-0.178681806,10.5696516
1622,3.412652493,0.845272541,9.045841217,-55.43616104,5.4038167,13.09964943
1623,2.569514275,0.409795225,8.868876457,-57.85201645,7.226419449,14.31709003
1624,3.067167997,0.0278299,9.405274391,-55.85741425,8.983027458,16.72052574
1625,3.464485407,0.218347847,9.539669991,-54.74557495,9.211639404,17.53435516
1626,3.617077589,0.280578405,9.852917671,-55.03010559,9.092885017,16.10299683
1627,4.02405262,-0.0671909,9.543405533,-51.57125092,6.516910076,14.13973808
1628,3.769387722,-0.256165743,9.694098473,-49.35718155,3.045659542,13.06546497
1629,3.413236141,-0.47188291,9.767414093,-45.84313202,1.483006001,11.04861641
1630,3.593460083,-0.648838341,9.62832737,-39.35258865,-2.541133165,8.374503136
1631,3.510608673,-0.584595323,9.372559547,-31.43561745,-5.950140953,8.244068146
1632,3.386665821,-0.599208117,9.412443161,-21.56456184,-7.264718056,7.464632034
1633,3.91380024,-0.794508934,9.339235306,-16.92577362,-8.690382957,7.153073788
1634,4.019712925,-0.707185328,9.342074394,-17.7571888,-9.283931732,6.370618343
1635,4.397311211,-0.216581225,9.07009697,-20.78658295,-9.684533119,3.355359793
1636,4.530094624,0.23887974,8.520424843,-27.53032684,-12.94445133,1.497861147
1637,4.029532433,-0.014010768,8.345417976,-30.02392006,-9.082853317,6.458099365
1638,3.456569672,-1.343768358,9.389988899,-14.45704651,-8.584188461,6.534511089
1639,3.69976759,-1.9585464,9.544979095,-3.306571484,-19.27385712,1.356463075
1640,4.087851048,-1.805544257,8.884536743,-1.59752667,-28.96457481,-4.299418926
1641,5.138575554,-2.360650063,8.29878521,2.396514177,-34.97769928,-5.202711582
1642,4.39303875,-1.518697143,8.463580132,7.747441769,-45.60017776,-10.59608936
1643,5.101416111,-0.154856056,8.411968231,3.965905428,-47.5261116,-16.14644814
1644,5.302618504,-0.51099658,7.976396084,-4.851782322,-51.04649734,-20.39094353
1645,5.764417171,-1.220552564,7.724241734,-9.226228714,-52.57330704,-22.27109528
1646,5.784542084,-1.187503219,6.476522923,-5.192599297,-61.22616577,-23.78270721
1647,6.376950741,-1.36563623,5.806823254,33.99285889,-57.16950607,-25.47021675
1648,5.869111061,-0.241167769,6.282040596,52.51025391,-32.2725563,-25.7869072
1649,5.502505779,0.480294168,7.909988403,77.34191895,-33.37832642,-20.93727875
1650,5.344708443,-0.020866722,9.126507759,82.46206665,-56.00127411,-16.12667274
1651,5.177479744,-0.352659345,7.964360237,87.514328,-67.32656097,-12.19989109
1652,4.587621689,0.108241186,6.980309963,66.20603943,-66.50514221,-8.167510033
1653,4.829677582,0.906189442,6.598536491,62.45400238,-72.78845978,-2.68644309
1654,4.320988178,1.341025472,6.666366577,63.66013718,-85.45962524,4.470005512
1655,3.979094982,1.270531058,7.02541256,56.15282059,-93.63658905,8.428189278
1656,4.131685257,1.428129315,7.678701878,41.8803215,-97.24510956,6.773880005
1657,4.608725071,1.624872446,8.452722549,23.91879845,-100.2500153,5.452194214
1658,4.394699574,2.132155657,8.362783432,3.075266123,-97.3640213,4.213417053
1659,4.049032211,2.446119547,7.920258522,-15.52705002,-82.32962799,3.544436932
1660,4.435346127,1.602750778,7.630688667,-29.83883667,-65.09996796,4.212078094
1661,4.298203468,0.587780297,7.376550674,-38.86908722,-46.18368149,5.522912502
1662,4.38988781,-0.445977032,7.247733116,-42.17162323,-27.55904007,7.798164368
1663,4.426404476,-0.814024746,6.929387093,-46.27978897,-4.971841812,6.159147263
1664,4.445550442,-1.299868345,6.496104717,-56.09391022,15.36456394,0.368827254
1665,3.945202112,-1.487801075,6.778864384,-57.52576447,31.93564987,-0.321898878
1666,4.22756052,-1.092941999,6.452713013,-55.84985352,41.73723221,-0.465806901
1667,4.133412838,-0.893175781,6.726786137,-46.93156052,54.22323608,1.389917374
1668,3.580408096,-1.47595489,7.082015991,-34.1245842,62.84703827,4.596404076
1669,3.609586716,-1.385770679,6.494842529,-23.17090225,72.83490753,3.478948355
1670,3.812224627,-0.201082721,6.691430569,-20.72572517,79.32853699,4.433875084
1671,3.978022337,0.625490725,6.993902683,-21.32464409,75.82515717,11.34559059
1672,4.162212849,0.213788226,7.375567436,-24.48701477,74.56298065,18.2309227
1673,4.484506607,-0.239851043,7.815078735,-27.40316963,74.75454712,23.16555595
1674,5.666999817,-0.609093666,7.998595238,-27.69728088,73.8289566,23.48255157
1675,6.18248415,-0.854062974,7.842642307,-21.415308,67.08078766,21.07656479
1676,5.855883121,-0.797502518,7.456252575,-14.41601944,52.81496048,21.49076271
1677,5.611305237,-0.767917275,7.718016148,-10.00546741,41.02059174,27.88050842
1678,6.368571281,-0.728606105,7.574638844,-2.350166559,32.14343643,29.68887901
1679,8.493367195,-1.249958396,7.944334507,4.340592384,26.02497292,26.31287384
1680,10.52768135,-2.777378798,9.306827545,10.58296585,26.08308029,12.89147282
1681,11.7897768,-2.338758469,9.654520035,40.85581207,26.79807472,-1.426120639
1682,14.47310925,0.673859537,9.917349815,53.50286865,22.59831429,-0.638730705
1683,15.88920021,2.426082134,9.872253418,20.65916061,16.81373596,10.76936531
1684,14.62904644,0.519694924,8.448297501,15.0936203,16.47355843,8.959058762
1685,12.596632,-1.119168878,7.779888153,32.6542244,8.02401638,-0.333152115
1686,11.68540001,-1.820697784,6.615741253,31.27971268,7.557711124,-11.25429821
1687,12.01664162,-0.725215375,5.174773693,31.74739647,32.55234909,-20.59882736
1688,11.18833637,-0.610618532,3.414999008,-39.53010941,87.94967651,-18.58499908
1689,7.372639656,-1.391773701,-3.246988535,-28.507267,39.59815979,-24.08384705
1690,6.017744541,-2.352879047,1.248606324,-0.9477368,19.81301117,-20.94081306
1691,4.146007061,-0.187571958,4.739910126,-10.89053822,-4.651493549,-28.89795303
1692,0.866988778,0.037132636,7.748328686,-5.876042843,7.614884853,-19.12357903
1693,-1.807168603,1.611413836,9.087388039,2.7289536,17.97817421,-9.29856205
1694,0.424276233,2.13088274,10.38692188,31.57442474,23.45658684,-5.483466625
1695,6.028142929,1.902388573,10.51123238,34.88920593,37.7824173,-3.909834623
1696,8.69776535,-0.526216447,11.64741802,-14.17002296,43.8041687,3.379844904
1697,8.60777092,-3.061396122,9.157315254,-21.48434067,28.04145813,-1.225592256
1698,4.613316059,-3.885885954,8.602186203,-7.57330513,14.46234035,-4.787549496
1699,0.102690831,-1.661371589,9.379260063,3.072833061,8.525303841,2.806665659
1700,0.127387956,0.562811732,8.321411133,9.292367935,-1.675525665,2.385887861
1701,2.546667337,0.637624323,7.741610527,14.87898636,-11.12640762,0.519836009
1702,3.579739809,0.512407124,7.942753315,26.38547707,-17.57250023,3.903312206
1703,4.011745453,-0.103177577,7.900230408,34.03943253,-22.58280754,5.244257927
1704,4.898970127,-0.113087073,8.33181572,38.82386398,-26.28426933,1.776754141
1705,4.701973438,0.333054215,8.792984009,32.82617188,-25.30047226,-0.736439943
1706,4.812147617,0.736580253,9.049759865,20.11229897,-18.97032166,2.049457073
1707,5.260553837,0.08932434,9.185684204,4.216262341,-8.799880981,6.743467808
1708,4.310836792,-1.011180043,9.518875122,2.188503027,-2.067041397,7.017023087
1709,3.647879362,-1.111383915,10.26575851,15.8114357,-1.040625691,2.50347662
1710,4.138477802,-0.578945994,11.02502632,16.72780037,-2.449287415,-0.970382929
1711,4.813396454,0.093694031,11.18372345,10.49193954,-5.875614166,-1.720873356
1712,5.070690632,0.311187506,10.33462811,4.220769882,-8.541397095,2.081122398
1713,4.994160175,0.068775766,9.469883919,-0.27868551,-8.944452286,6.263793468
1714,4.853882313,0.151649252,8.824001312,-1.630370378,-2.580908775,8.330224037
1715,4.790659428,0.263057917,8.611722946,-5.810058594,3.757922649,10.37355804
1716,4.704212666,0.060515434,8.744790077,-14.36819077,10.66008759,13.09797096
1717,4.85878849,-0.333213866,8.679795265,-10.08016872,15.19974995,9.836712837
1718,4.696073055,-0.680151284,8.659850121,-3.28710556,17.46547318,4.966871738
1719,4.59482193,-0.378821284,8.701228142,-1.139926434,17.52437019,0.25658831
1720,4.603110313,-0.39929074,8.736260414,0.264944375,15.91240978,-0.100081712
1721,4.828512669,-0.760423303,8.527626038,1.580797434,12.59166431,2.075340509
1722,4.681275368,-1.392145872,8.558766365,4.81849432,13.28303623,1.19749701
1723,4.633313656,-1.391955376,8.88471508,-4.610976696,18.21268845,1.043001652
1724,4.451872826,0.104196616,8.952602386,-18.08243942,13.67213535,0.042056128
1725,4.525651932,1.137257576,8.636119843,-26.7006855,10.3336668,2.454152107
1726,4.530311584,1.098684072,8.106826782,-10.05887318,4.503803253,4.165459633
1727,4.526705742,0.989697158,8.193898201,4.721201897,1.372315645,2.398078918
1728,4.091083527,1.185643554,8.079174042,0.750414193,-12.59405994,2.791311979
1729,4.324446678,0.850267589,7.838999271,-6.765608311,-16.59933472,6.011743069
1730,4.651074886,-0.254186183,7.51145792,-6.09029007,-15.90379333,4.850640297
1731,5.205283642,-1.093669057,7.349963188,0.887365341,-12.53260136,1.563835382
1732,5.038161755,-1.128821135,7.231144905,15.37642288,-7.597483158,-0.822828054
1733,5.447058201,-0.527408838,6.91848278,35.38568878,-2.143939734,-0.585809827
1734,5.482201099,-0.015126474,7.64696455,48.54649734,8.809501648,5.726895809
1735,4.695275784,0.083663628,7.553309917,39.42670441,-3.665729761,9.83450222
1736,4.239656448,-0.519157469,8.284807205,30.96834373,-14.28754997,9.03212738
1737,4.084892273,-0.584262967,9.609680176,24.19872856,-38.76858902,3.281298876
1738,4.619877815,-0.888697386,9.919635773,42.49748993,-61.86388779,3.853136063
1739,4.969380379,-1.204596043,9.354989052,37.19354248,-71.74845886,3.010791063
1740,4.68708849,-0.606865764,9.501487732,45.65277863,-75.63446045,1.304337025
1741,3.911902428,1.300257921,9.220576286,32.92219162,-75.92330933,0.000909273
1742,3.892789841,2.254087687,8.178364754,30.67275429,-81.75685883,4.016717434
1743,3.740626812,1.69024229,8.263575554,28.0731945,-91.88838196,10.8066473
1744,3.453928232,0.709745824,8.484698296,19.71552658,-101.5908813,16.62332726
1745,3.419555426,1.055450082,8.100162506,-2.364825249,-101.055336,18.29419327
1746,3.295160532,2.226316929,7.884287357,-22.20562553,-91.60482025,15.39047432
1747,3.191074848,2.211918354,7.904905319,-35.95862579,-81.19944,12.27058411
1748,3.423941374,1.271889091,7.031821728,-45.9431572,-63.42251968,9.823634148
1749,3.721366167,0.879629135,7.05286932,-63.46588135,-46.55259323,6.408412457
1750,4.093992233,0.404884845,6.961244583,-75.68765259,-33.383564,5.87992239
1751,4.237820148,-0.526994765,6.480464458,-80.21638489,-17.99850845,8.368804932
1752,3.693664074,-1.435908437,6.437842846,-70.03930664,1.06476438,12.29418564
1753,3.216768026,-2.351020575,6.786603928,-28.81044579,21.24155235,11.78917599
1754,3.648141861,-2.934630394,7.136165142,-3.331927538,36.9207077,1.384770274
1755,3.717039347,-1.988405347,7.098619461,8.718734741,54.72029495,-6.088774681
1756,4.061938286,-0.395405501,7.116845131,15.48644829,65.74725342,-8.616490364
1757,3.716980457,-0.096313536,6.597962856,20.84721184,73.80760956,-7.259897709
1758,3.389352322,-0.753123581,6.263050079,24.58103752,75.16417694,-6.007175446
1759,3.647188663,-0.904077947,6.083333969,27.12414742,75.26290894,-4.128936768
1760,4.210833549,0.123248935,6.33187151,27.15603065,75.3320694,5.502782822
1761,4.844685078,0.325453162,6.945941448,23.31206131,76.44498444,16.74501419
1762,4.732738972,0.215019286,7.376924992,16.60564995,78.78629303,28.76518059
1763,5.062934399,-0.354703665,7.98201704,5.408499241,76.03088379,35.44883347
1764,5.041512966,-0.462413222,9.248796463,-13.26401901,76.09822083,35.17858887
1765,5.177118301,-1.283800006,9.953994751,-25.70004654,63.54893494,34.00524521
1766,6.678874016,-1.687788367,10.00390625,-30.61206055,39.88600922,30.7357769
1767,8.217400551,-1.189648747,9.243653297,-30.72814751,24.2925148,26.36897659
1768,9.434205055,-0.871845603,8.251311302,-33.64256287,36.57042313,16.91292
1769,10.61147022,-0.697633624,9.306881905,-14.74188423,61.52759552,-3.729319096
1770,12.23941135,0.045671403,11.11982346,20.92665291,65.65072632,-21.59116745
1771,14.40771008,0.94273597,10.75410175,19.24412537,42.1427536,-16.75024033
1772,14.12721539,0.389140695,8.785996437,5.86014986,25.61866951,-8.063417435
1773,11.74834251,-0.451147676,7.022439957,21.75156403,30.7666893,-11.47190762
1774,10.86852551,-0.671414673,6.526531696,7.512340546,38.53461838,-14.31302071
1775,11.39645672,-0.446523756,6.234245777,-6.726603031,43.51421738,-10.59884834
1776,10.62839317,-1.367072463,4.77874279,-16.63695526,58.79044342,-7.925367355
1777,9.218899727,-1.1331774,3.893451214,-7.253210068,47.16865921,-8.007562637
1778,7.015114307,-0.314568967,5.790028095,-12.3002243,45.27092743,-15.11576366
1779,3.696829081,-1.222587705,6.372456551,-40.41972351,49.0174942,-19.27766418
1780,2.614815712,-1.601968408,8.166930199,-22.34144402,50.68885803,-19.69604301
1781,-3.942916393,-2.184445858,7.476945877,-19.41652679,51.53028107,-9.909898758
1782,-5.440936565,-2.66968441,5.977829456,1.838957429,24.30581474,-4.936634541
1783,0.122706152,-2.67398119,8.058050156,19.94062805,16.96574402,-7.374601364
1784,5.953255653,1.443625212,10.38393974,39.53910828,25.90446472,-9.543364525
1785,7.176855087,3.11187768,10.82723427,22.04335403,28.51112747,-6.504305363
1786,4.71190834,1.094511867,11.97690487,14.16911793,37.50976944,-7.852509022
1787,1.978380561,-1.73932004,12.2668848,20.14915848,45.63619232,-11.1150856
1788,-0.441453248,-2.357633114,11.14335155,20.83819389,39.6074791,-8.616601944
1789,-0.939749181,-1.259071589,9.460682869,18.13514709,16.96775818,-0.109257609
1790,0.298529863,-0.486484885,8.328226089,14.74553871,-7.25135231,1.955044746
1791,2.093514204,0.47981444,8.37183094,14.15281773,-22.30327988,-1.691870213
1792,2.867928743,1.071096301,8.936209679,9.814306259,-21.75438881,-1.486506462
1793,2.923304081,0.455400854,9.356824875,0.631212473,-12.0842762,4.264631748
1794,2.975358963,-0.833595872,9.40100956,-8.188749313,-3.770479679,8.832339287
1795,3.0303123,-1.496754766,8.977178574,-1.604821682,-0.758411407,8.440743446
1796,2.482941866,-1.160192966,8.611508369,4.239888191,0.064339101,1.798818469
1797,1.843263984,-0.593206942,8.842993736,11.05425453,-3.867628336,-4.260616779
1798,1.569524884,-0.202306867,9.214232445,17.55879402,-7.295357704,-4.166134357
1799,1.913866043,0.236466944,9.485257149,18.20273018,-9.782190323,-0.704510331
1800,1.896410465,0.331173271,9.661211014,17.38180542,-12.18976307,3.369598866
1801,2.127406836,0.025047868,9.93099308,11.70832443,-14.53168488,5.682198048
1802,2.810720444,-0.437836081,9.710374832,6.006609917,-19.84220886,4.531802654
1803,3.100383282,-0.660043657,9.570548058,6.521902561,-23.46836853,1.930855632
1804,2.559642792,-0.476977617,9.736018181,10.23443413,-22.81778145,-1.581453085
1805,2.776763201,-0.075230531,9.84392643,9.501268387,-22.27503586,-5.058589935
1806,3.276527166,0.21680066,9.491212845,4.406813145,-20.63398933,-4.640779495
1807,3.222223043,0.344122589,9.388979912,3.035340071,-20.40056419,-0.197173268
1808,2.919613361,0.402734995,9.548091888,1.877388477,-21.80514717,0.95848012
1809,3.034234047,0.187104061,9.40767765,-0.696660399,-23.68701172,1.621645689
1810,3.568440676,-0.22120595,9.120266914,-0.666987896,-22.65478516,3.039156675
1811,3.948554754,-0.643978059,8.950756073,4.290530682,-19.50942039,5.523668289
1812,4.091526985,-0.633594155,8.795060158,9.174870491,-20.07637978,6.352640152
1813,4.164258003,-0.130288303,8.435110092,9.398094177,-18.40462875,3.233274937
1814,3.542932272,0.422772408,8.415754318,-0.203589097,-14.76107693,1.986586332
1815,3.609846115,0.336399138,8.365664482,-12.61807632,-10.6510582,1.261516213
1816,4.209285736,-0.636928797,8.013461113,-15.84253025,-9.861854553,2.892548084
1817,4.607795715,-1.446909785,8.069916725,-7.794213295,-10.71923637,4.433792114
1818,4.916703701,-1.28255713,8.292510986,-0.800198913,-14.31366158,3.266953468
1819,4.729111671,-0.671854138,9.277946472,-1.190268517,-17.98550987,3.178655148
1820,4.642490387,0.124421194,9.432022095,-18.57446098,-23.91440582,3.085955858
1821,4.415588856,0.19425109,9.373425484,-38.8885231,-28.48760796,0.514089525
1822,4.302905083,-0.585534453,8.068323135,-43.73646927,-42.43516922,-3.848748922
1823,4.748173237,-1.532247305,7.436681747,-38.84318924,-58.07777023,-9.473361969
1824,5.2485075,-1.498200893,7.149275303,-28.29886246,-78.92311859,-16.05877495
1825,5.650424004,-0.83283335,8.021943092,-22.80068398,-77.82933807,-16.15258217
1826,5.532777309,0.385416925,7.840349197,-14.63997459,-75.91517639,-11.47105312
1827,5.562914848,0.550853491,8.811810493,-3.194281816,-82.58247375,-8.337000847
1828,5.185324669,0.135716528,8.749415398,7.764760494,-88.83851624,-9.388222694
1829,4.790229321,-0.712599754,7.541201591,14.53885841,-81.70318604,-8.569411278
1830,5.152942657,-1.565370321,7.393433094,11.30128574,-77.53824615,-8.62629509
1831,5.313153267,-1.349984884,8.081670761,15.78690338,-84.81820679,-13.74880028
1832,4.641126633,-1.05255127,8.376125336,24.17328453,-87.23471832,-11.67114639
1833,4.178761959,-0.601261735,8.602883339,31.33728027,-84.93569946,-8.068881989
1834,4.17872858,0.031501755,8.624166489,35.04801559,-81.88240051,-6.974347115
1835,3.370192766,0.355865955,8.739197731,31.36505508,-73.94113922,-6.313560009
1836,3.224361897,-0.195920333,7.966835022,30.67577362,-58.04518127,-4.793381214
1837,3.574491501,-0.651836157,7.347790718,31.47438622,-44.35900879,-1.797255278
1838,3.468259811,-0.434928596,7.108155727,33.89082718,-27.72827148,-0.084080666
1839,3.976960659,-0.324234903,7.149828434,37.8403244,-9.429051399,1.927289009
1840,3.61352849,-0.611684024,7.405417919,37.26465988,8.631767273,0.691277504
1841,3.254245758,-0.613471687,7.250526428,36.7908783,25.45828438,-5.509426594
1842,4.462195873,-0.749853015,7.44960165,28.7981205,36.84893417,-6.337610722
1843,3.693571806,-0.70447278,7.417318344,11.87875938,46.57553101,-11.81451607
1844,2.63441515,-0.284640342,7.403848648,6.554979801,58.52430725,-16.9666729
1845,2.343923092,0.664106607,7.660252094,-1.176409245,74.92678833,-16.04974174
1846,3.357991219,1.147401214,7.701350212,-8.586019516,82.69573212,-11.92639446
1847,4.077982426,0.460550666,8.023146629,-19.26975441,85.30143738,-6.563924789
1848,3.586901426,0.68436265,8.223917007,-20.58813858,85.0470047,-3.354336023
1849,2.962958336,0.657893002,8.231359482,-19.92650986,87.34043121,3.17373395
1850,3.375869036,0.211367249,7.960435867,-6.064267159,89.60253143,7.162039757
1851,4.443311691,-0.951892972,8.275509834,5.34406805,86.87999725,9.533677101
1852,5.163581848,-1.080473661,9.300925255,-2.410533428,81.70217896,14.32735538
1853,4.933376789,-0.716982663,9.227778435,-1.153497815,61.88357544,19.37412453
1854,5.318078995,-0.721835256,8.993255615,3.946280479,41.41807938,19.29558563
1855,6.618033409,-0.928959191,7.461567402,5.66313839,26.95014954,10.2657423
1856,9.346186638,-0.225770414,9.108565331,0.450068653,37.21839905,-3.300206661
1857,11.80966473,-0.935608506,11.54644585,-0.975313008,60.80401993,-16.26558876
1858,14.0753212,0.4674384,12.20780754,30.72980309,33.34209824,-31.58391571
1859,15.04445648,3.170064449,10.92762947,40.31760025,-14.08072376,-30.53541374
1860,12.24826241,3.726305485,8.592788696,18.55568123,-53.70192719,-25.99420357
1861,10.66833973,1.785929561,6.624475002,-9.787615776,-74.19799042,-17.33286285
1862,11.59039593,-0.140953988,3.883413315,-11.9788723,-31.29592323,-8.124272346
1863,12.27770424,-1.423984289,2.671658993,0.140396088,8.431014061,-11.06682491
1864,10.37423801,-1.064915538,2.946740866,-12.21848583,25.01102066,-16.61247635
1865,7.411650181,1.179289699,2.676322222,-26.65102577,27.57053757,-23.2776947
1866,4.053594112,1.394891262,3.918715954,-74.11713409,18.33821869,-29.60938644
1867,-0.475397617,0.074519753,4.481730461,-52.38019562,4.590275764,-27.90398598
1868,-2.629128933,-1.232278943,7.845581532,-16.61227608,27.31570244,-10.11182404
1869,0.16880241,-1.389643788,8.5204916,-6.917211056,28.00750923,2.600477934
1870,4.695222378,0.533439159,9.865246773,10.90042114,30.59307289,5.391019344
1871,6.863493443,1.763608575,10.31505299,4.42912674,39.34284973,4.314534664
1872,6.893998623,-0.753988743,10.18223476,18.74630928,42.92331314,0.882274687
1873,5.618484974,-1.041746855,12.0475502,15.48762512,50.18083572,2.184477329
1874,3.306333542,-0.099988811,10.6445055,7.672783375,47.4621582,5.119918346
1875,1.02984035,-0.832452416,9.790808678,4.412249088,40.7546463,6.518753052
1876,0.769928992,-0.811080873,9.569047928,-1.493642688,31.85468102,11.16970444
1877,1.879511595,-0.891705215,8.725450516,3.317222834,21.66547012,11.62081337
1878,2.830652475,-0.664459825,8.504163742,16.186203,13.4303627,6.682415962
1879,3.662037373,0.067837641,8.860996246,27.55018044,10.92746162,0.593704224
1880,3.405336618,0.966997862,9.300404549,30.78456879,11.63744164,-1.056393385
1881,3.087357759,1.252584338,9.291360855,22.52624512,12.503829,2.200392485
1882,3.307873726,0.636104763,9.226510048,7.600908756,12.44013786,5.397150993
1883,2.974003792,0.355953425,9.135354996,-3.788613796,11.24317551,7.491654873
1884,2.77433157,0.226210788,8.998243332,-2.84195447,8.04002285,6.578342915
1885,2.444702387,0.043655954,9.164445877,2.057468414,3.974873543,2.921371937
1886,2.39784193,0.937303245,9.731042862,11.64772701,5.087837696,2.500377417
1887,2.890204906,1.696997881,9.565119743,10.92250443,8.005868912,4.215916634
1888,2.992221355,1.850078702,9.458621979,-0.906145513,6.64136219,7.930154324
1889,2.15484333,0.570465505,9.4400177,-10.56995392,4.338846207,8.614902496
1890,2.604133368,-0.433850229,9.595216751,-8.93884182,-0.0296275,4.504801273
1891,2.85524869,-0.570675671,9.930575371,-2.587171078,-6.245432854,-0.308818728
1892,2.786368847,-0.170604423,10.11286163,0.485220015,-11.82136154,-4.40014267
1893,2.998326302,0.308855116,10.15828705,0.13519679,-16.35633278,-7.218659878
1894,3.420026779,0.801358044,10.00266361,-1.904595494,-20.85058403,-5.493901253
1895,3.82016778,1.251569152,9.573698044,-6.405870914,-23.11501694,-2.125365257
1896,3.65735507,1.522808671,9.397023201,-14.75911713,-21.25699615,3.113794565
1897,3.783305883,0.708254039,9.328907013,-22.12658691,-16.83587265,7.799692154
1898,3.818948984,-0.598163784,9.011537552,-20.25255013,-12.12822342,7.537308693
1899,3.824164391,-0.929670155,8.986232758,-11.99283123,-10.30861568,5.393949986
1900,4.086754799,-0.597466052,8.737835884,-6.561406136,-7.892510891,1.269327283
1901,4.110748291,-0.452988565,8.913844109,-3.896210909,-7.241806507,-2.014304638
1902,4.170810223,0.002879302,8.981619835,-0.871273696,-6.299796581,-0.554982424
1903,4.413042545,0.677788198,8.86704731,-0.352334708,-6.195769787,2.64759779
1904,4.621649742,0.573223233,8.754873276,-2.168877602,-6.060894489,6.328221321
1905,4.575104713,0.054579005,8.533891678,-1.801014781,-3.515862226,7.906910419
1906,4.734879494,-0.18793501,8.35132122,-0.646509528,-4.086219311,7.104708672
1907,4.539019585,-0.508932829,8.530402184,4.784836769,-0.184276983,5.367141724
1908,4.919471741,-0.812017322,9.058486938,5.20721674,3.94000268,2.495945454
1909,4.692112446,-0.926445425,9.310947418,5.171870708,-4.982585907,-1.135622382
1910,4.580691814,-0.320067853,9.69927597,8.394229889,-19.05986595,-4.607955933
1911,4.250885487,-0.18156293,9.628310204,-12.18641949,-29.80162811,-0.434821993
1912,4.616553307,0.533941388,8.708622932,-18.56543159,-41.83038712,-0.511137187
1913,4.511741638,1.147429943,8.080105782,-7.176339626,-61.27837372,-1.014289379
1914,4.418412209,0.556040466,7.975717545,23.81459618,-76.263237,4.810121536
1915,4.552669048,-2.095829487,7.758757114,2.393470526,-79.19121552,7.799203396
1916,5.567327499,-2.174133539,8.789511681,-36.23831558,-74.5114975,1.709868312
1917,5.321540356,-0.683743596,8.885749817,-58.19864273,-59.42715454,-2.536775351
1918,4.739151001,0.13389343,7.420389652,-37.31933975,-50.27457809,-3.04691577
1919,4.074790478,0.538522482,7.391593456,-3.96641469,-52.32850266,2.396539688
1920,4.131109715,0.666805685,7.600954056,8.160066605,-59.14239883,2.348803997
1921,3.673466206,-0.280498058,7.205002785,16.84148598,-61.17833328,0.270371497
1922,3.190593004,-1.262456417,7.312232494,12.54883003,-62.91510773,-1.226501107
1923,3.34222126,-1.146937013,7.735987186,8.02630043,-72.67987823,-3.462767601
1924,3.002218485,-0.667522371,7.728253365,4.5918293,-78.09146881,-6.977620125
1925,2.661098003,-0.618279517,7.904922485,4.756236553,-75.70536041,-12.21034622
1926,2.467947245,-0.518353879,7.901221752,5.160386086,-65.02345276,-13.65861416
1927,2.565150738,-0.545514882,7.957062721,6.818785191,-53.1663475,-8.831703186
1928,2.979320049,-0.528062463,8.155431747,10.72684956,-41.22553253,-7.265968323
1929,3.412167072,-0.179631248,8.301786423,9.882331848,-32.56282806,-8.807445526
1930,3.147732973,-0.537482142,7.758570194,13.02361679,-17.1262989,-10.20597744
1931,3.167183876,-0.945503592,7.142965794,18.87935638,2.401552916,-10.49678802
1932,3.020356178,-0.632671475,7.578738213,16.91639709,18.9180069,-7.975743294
1933,2.970557213,0.453997731,7.688305378,12.67564011,36.8106842,-7.585517883
1934,3.196061373,0.473782212,7.731154919,16.38413811,46.59378815,-5.578564644
1935,3.270055294,0.006357267,7.34211874,17.00703049,56.92707443,-2.959385872
1936,3.234089375,0.140113652,7.116232395,15.9829874,59.79096985,1.167225003
1937,3.15068841,0.155858874,7.087420464,12.9880991,61.21891785,4.28050518
1938,3.37999773,0.031362705,7.524003506,7.138628006,58.36593246,5.749237537
1939,3.667379141,0.194561988,7.788754463,3.800189972,58.12537003,8.759255409
1940,4.200493813,-0.548770368,8.067664146,1.765966177,58.27954102,10.77441025
1941,4.878734589,-0.508129299,8.629418373,-0.896026373,58.45642853,5.208277702
1942,4.982256413,-0.773394644,8.554615974,-10.80032921,59.43082047,3.998462915
1943,5.049283504,-0.283718765,8.372077942,-9.512306213,50.79777527,2.488835096
1944,5.839495659,0.232543588,8.017147064,-7.049681664,37.2832489,1.011975646
1945,7.132635117,1.435274601,8.297800064,-8.624788284,17.60335159,-2.865264893
1946,9.100259781,1.2767272,9.222117424,-20.34856987,1.816506505,-7.202127934
1947,11.87535191,0.882299542,9.764010429,-8.211700439,-5.9075284,-9.24585247
1948,13.48071098,1.241083026,8.816662788,-3.635347366,-12.68157959,-5.131616592
1949,14.96622372,0.762502015,7.182335377,-16.68608093,-28.34379578,-6.947439671
1950,14.88833237,-0.736815035,5.887979031,-18.72595215,-2.56884861,-8.708862305
1951,12.91476727,-0.753157079,4.729251862,-7.513103962,12.96425629,-12.47046185
1952,11.10686016,0.244138762,3.891170025,-13.46843529,35.19647598,-16.40752411
1953,9.123273849,0.045681383,2.257490635,-88.20622253,99.33920288,-8.88606739
1954,7.243951321,-0.34341675,0.412576556,-44.56727982,44.27787399,-11.14719582
1955,5.586702347,0.808119416,3.357970238,-4.326910019,22.43721008,-9.007229805
1956,4.461268425,0.862155795,4.814488888,13.23087788,-6.954295158,-1.964348316
1957,0.893087387,0.192144617,6.920022011,0.632032752,-18.03523064,-12.36218834
1958,-2.257128,-1.597604871,8.985044479,9.726340294,-4.743226051,-11.22823811
1959,1.313653827,-3.026634932,9.94854641,52.54818726,9.330095291,-2.225951433
1960,4.426664352,-0.892373383,9.740561485,62.62811661,18.70689011,2.407630205
1961,6.464906693,0.089584485,11.55811405,65.30945587,37.38941574,0.152398601
1962,7.718368053,1.791500568,12.13073444,62.19300461,43.81817627,3.630290031
1963,7.28719902,1.157526016,12.40448284,38.83361816,43.2572937,7.198573589
1964,5.491702557,-0.603417754,11.14504051,28.50956917,39.14029312,6.14612627
1965,3.127404451,-2.257135153,10.72268772,18.26444817,33.48281479,8.305217743
1966,1.820284367,-2.155020237,10.23494339,15.96938705,28.96709824,2.534501553
1967,2.256910086,-0.37795639,9.225727081,7.926180363,17.68535995,2.05656147
1968,2.950980663,1.373380303,8.663869858,4.655813217,7.395451546,5.247530937
1969,3.200767517,2.023101568,8.556586266,0.333631039,-1.490319967,9.445466042
1970,3.459581375,1.441787243,8.361467361,-10.21923256,-10.90684605,16.09770966
1971,3.39471674,0.395148158,8.461112976,-10.56556129,-17.39718246,22.30049706
1972,3.48930192,-0.245901749,8.97682476,-5.327722549,-19.6588974,23.87872696
1973,3.695527554,-0.734465778,9.45141983,-7.947663784,-20.79079247,19.50726509
1974,4.039518356,-1.016689301,9.20263195,-12.23047161,-19.13898849,14.61219597
1975,3.857120991,-0.823088169,9.186676979,-16.80782127,-19.15337563,11.10179138
1976,4.168859959,-0.554587543,9.250898361,-13.83536434,-20.53581429,6.480757713
1977,4.389685154,-0.230345234,9.272603035,-5.361931324,-20.95448112,1.694974303
1978,4.446067333,0.05468316,9.376335144,-2.429425478,-19.32795143,1.248774409
1979,4.505481243,0.364471942,9.527096748,-1.867417336,-15.20097733,1.890795112
1980,4.417059422,0.72805053,9.543193817,11.75828743,-10.67162323,0.077901088
1981,4.24770689,0.542240381,10.10833454,24.80535698,-8.746981621,-3.191484451
1982,4.392028809,0.235096127,10.25074196,17.97488403,-14.54788113,-0.533020437
1983,4.512055874,0.189822316,10.22076035,9.365811348,-4.192294598,0.896367908
1984,4.259503365,0.265540212,9.501331329,4.73782444,1.195933938,3.262789249
1985,4.477908134,0.808939159,8.802099228,-0.400422543,-0.684749126,3.357376575
1986,4.408985138,0.70425719,8.9846735,-3.016926765,-1.456011772,4.114898205
1987,3.962927818,-0.002979866,9.132058144,-5.662142754,-2.403066874,6.384913921
1988,3.191078901,-0.45267415,8.676431656,-10.41709328,-5.825208187,6.953006268
1989,3.835761547,-0.409273356,8.87958622,-18.31608391,-9.414198875,5.857736111
1990,4.095525742,-0.215604261,8.919917107,-19.95419312,-16.82275009,4.891384125
1991,3.55764246,-0.292662084,9.007498741,-18.81286621,-20.11245728,3.580831766
1992,3.343766212,-0.22647658,8.973202705,-17.34353256,-19.88880157,1.691556215
1993,3.399195433,-0.177421033,8.856163025,-16.39311981,-19.55142784,0.447621375
1994,3.421062469,-0.174893767,8.736121178,-16.55238914,-18.32340813,0.538162351
1995,3.373305321,-0.390438944,8.677656174,-19.5300827,-17.29907227,1.895971775
1996,3.369215488,-0.818327487,8.421034813,-21.23479271,-16.5469265,2.627767086
1997,3.442450047,-1.044936895,8.265978813,-22.03443718,-14.43301678,3.918112993
1998,3.372946024,-0.982777297,8.220604897,-18.50077057,-12.14354515,4.221005917
1999,3.444734097,-0.733308613,8.192192078,-11.91864395,-8.549045563,6.125871181
2000,3.591135025,-0.925553203,8.145093918,-10.61797619,-4.439483643,7.80110836
2001,3.612178564,-1.275901556,7.866719246,-16.46924591,0.696269214,6.718551159
2002,3.636396885,-1.566518903,7.685434341,-20.28037643,5.110266685,2.282581329
2003,3.715155125,-1.154015303,7.591049194,-16.13117981,13.4468174,0.035345584
2004,3.234630585,-0.829580426,7.521783829,-10.80358505,24.19768333,-1.017037988
427,-2.534462214,1.20843184,9.15703392,-8.34838295,-14.67727375,32.38349915
428,-6.542102814,-0.333276778,12.05954266,-11.67556667,-6.05320549,23.32053185
429,-1.260682344,0.867821097,10.70561028,-0.272493988,-4.740291119,21.22086906
430,1.038242102,1.275274158,10.45459461,-6.103576183,-23.82385445,16.40127754
431,-0.659170389,0.992024064,11.03196144,-9.137087822,-33.03271484,6.343287468
432,-2.508621216,1.519159555,10.96273136,5.213673115,-34.70105362,0.739153624
433,-2.101619482,1.835597634,10.49765491,20.3920517,-42.38837814,-4.86788559
434,-1.03898716,1.965759158,10.1534481,23.94672585,-60.2935791,-4.046905041
435,-0.519848883,1.742590547,10.04824352,16.69148064,-67.18997955,0.528264403
436,0.061437827,1.120072722,10.29925632,6.693264008,-71.16488647,4.253200054
437,0.146254078,0.894027352,10.35263348,2.484396458,-63.17128754,5.055447578
438,-0.043279961,0.638111293,10.28982258,0.254279047,-53.34661484,2.79103756
439,0.805156589,0.685810685,10.20103836,-1.847345471,-51.01856232,1.104730606
440,0.976489961,0.989550054,9.874896049,-0.32329911,-49.58003998,-0.414634794
441,0.813718975,0.917448282,9.824028969,6.4266572,-54.02418518,-0.041621067
442,1.03997016,0.897621512,9.867997169,10.69589996,-52.54957199,-1.263013244
443,0.949644387,1.333691597,9.837054253,8.492677689,-49.86090469,-1.716181636
444,1.701105952,1.516947865,10.04560661,2.659082651,-43.00125885,-0.704469025
445,1.84768486,1.400565267,10.58170795,-4.020704269,-40.11317444,-0.435892224
446,1.36858964,1.166433215,11.1442852,-11.19865131,-42.29683304,2.459495306
447,1.475280762,0.490445852,11.0448494,-11.29759884,-46.75519562,5.319795132
448,1.922354698,0.151347816,10.64612198,-2.204543591,-50.31808472,6.009377003
449,2.553612471,0.185959116,10.52238464,2.33748579,-56.30263901,4.07530117
450,2.853135824,0.2484916,10.48512554,6.413478374,-58.43511581,1.883139133
451,2.896859646,0.299170017,10.63364315,7.143979549,-60.03318405,2.304167032
452,2.940771818,0.390907556,10.33062267,6.759971619,-58.41001511,1.024245024
453,2.755510092,0.112291761,10.0298996,10.13878536,-53.63933563,-1.055638552
454,3.069463968,0.428845465,9.821345329,16.00253868,-49.56330109,-3.401975632
455,3.867442131,1.036426425,9.757452965,15.70142651,-48.92975998,-3.754216194
456,3.749590158,1.221217752,9.956477165,10.08598804,-51.3443718,-3.007408381
