PacketCounter,Acc_X,Acc_Y,Acc_Z,Gyr_X,Gyr_Y,Gyr_Z
699,-8.373085022,-0.015849929,10.46358395,-10.36712933,-9.865479469,-11.40527821
700,-5.11392355,0.594174862,10.95698738,-2.490635157,-31.73636436,-18.18789864
701,-3.806211948,0.610288322,10.63819408,-5.091692924,-44.37944031,1.226728916
702,-2.13601613,1.031579494,9.252866745,-0.410585105,-21.56420135,6.792890072
703,-1.734091163,1.596685171,8.329517365,-0.75169605,-21.88555145,13.15328503
704,-1.491295099,0.854990959,9.370715141,-16.2613163,-19.46298981,15.26335716
705,-2.972448587,0.19386147,10.2212925,-22.57184029,-18.85902405,11.9612236
706,-3.281676054,-0.147987872,10.60712433,-13.88492298,-16.03830147,-0.146364018
707,-2.66719985,-0.232760444,10.5255909,-4.494929314,-8.840037346,-8.860539436
708,-1.875964642,0.523874819,10.97592163,1.466725469,-11.6128664,-10.89013958
709,-1.745428205,0.864630818,10.32261658,12.88188457,-13.04997349,-5.12836647
710,-1.645947337,0.606892467,9.772594452,9.498832703,-3.215605259,0.877158463
711,-2.121321678,0.514583647,10.35197926,5.892669678,6.366517544,2.956442118
712,-2.350229502,0.273219347,10.35714245,-0.554796696,1.922700644,2.954149723
713,-1.700092673,0.228607327,9.376897812,-11.68442917,3.89917016,2.375547171
714,-2.085683584,0.5490821,9.212253571,-6.442016602,2.681886673,2.402810574
715,-2.604166508,0.839232564,8.872329712,-1.127445936,7.727207184,5.855930328
716,-2.466828108,0.778703868,9.372447968,-7.434076786,3.093752861,6.019774914
717,-2.546321392,0.459146529,8.837646484,-6.28402853,10.87717628,1.907487869
718,-2.616404295,0.306625962,9.015275002,6.105048656,14.94598198,-1.968292594
719,-2.096873283,0.146147028,9.233151436,-5.571300983,18.62522125,-3.577528954
720,-2.299930334,0.493275762,9.22658062,-0.728880584,17.74713516,-4.055256844
721,-2.086079121,0.839470387,9.066858292,-0.953900814,12.89901257,-3.033192396
722,-2.652611017,0.556611717,9.233210564,1.744577885,9.611317635,-4.551020622
723,-3.216776371,0.396784335,9.126568794,3.467012167,-0.10176567,-4.60537529
724,-3.108143568,0.333670318,9.13424778,7.260908604,-6.058654785,-2.56923008
725,-3.023161173,0.117470443,9.436513901,5.933058739,-14.20967484,-2.24729228
726,-2.933076382,0.534468532,9.507465363,6.107246876,-18.7205143,-2.796295404
727,-2.900359154,0.996196985,9.549536705,11.59444427,-24.98744392,0.43799749
728,-2.89131546,0.985518217,10.12383652,6.928309917,-34.4151268,1.331744432
729,-2.761140585,0.639559448,10.40688801,-2.995242357,-39.25240707,1.992237091
730,-2.112249851,0.607724071,10.44858265,-4.990905762,-44.2932663,1.476889729
731,-1.84178102,0.61688298,10.31148243,1.696171761,-50.72005463,2.036606312
732,-1.594647527,0.753071487,10.59375858,7.028545856,-56.91840363,2.98010397
733,-1.54794085,0.800803244,10.97791672,5.43620348,-64.53421783,4.295537472
734,-1.425049186,0.454677761,11.30283451,1.393611431,-70.32781219,6.737282276
735,-1.173076987,0.092777237,11.02841854,3.757544041,-75.76540375,9.154520988
736,-1.134514093,-0.295373797,10.94520473,16.13633156,-78.3861618,9.953245163
737,-0.767819822,0.077920541,10.95829582,26.62446976,-84.83509827,10.95431709
738,-0.267168939,1.023463488,10.88489532,37.7414093,-90.29182434,13.10756302
739,0.246110871,1.894876003,10.74742508,41.43931961,-93.10964203,16.89907837
740,0.193597287,1.812770128,10.67411041,38.99018478,-95.82540131,18.40963364
741,-0.135722429,2.127095699,12.37855721,29.81406212,-115.1741104,16.31493378
742,0.562889814,2.828156471,14.44555473,21.92488861,-162.3717041,18.64444351
743,2.675347328,3.447872877,15.11361122,37.4855957,-182.8711243,27.33126831
744,4.545215607,3.19139576,15.7685957,58.96348572,-150.0634918,28.48114395
745,4.694760799,1.765010476,15.47894573,76.23633575,-116.6278152,22.35007668
746,3.65839982,1.266319752,13.69923878,66.04895782,-92.23915863,15.1399765
747,3.594137907,2.457697153,12.48490238,49.05230713,-71.13665771,13.69314861
748,4.102658749,3.626473904,11.80438232,41.95009613,-38.38003159,13.72838688
749,4.843863487,3.798054457,12.02156639,33.30034256,7.871167183,5.33587122
750,4.028581619,3.098744631,12.60694408,9.676775932,52.53682709,-8.078584671
751,2.416988134,2.741475821,12.17577934,-2.773521662,79.3518219,-13.844594
752,3.327619553,2.379264355,11.64175034,-10.40639305,108.4134827,-12.52513981
753,5.467899323,1.87004447,10.58118248,-27.17045021,138.5031128,-16.14561462
754,7.91075325,2.626761675,8.704918861,-39.39927673,150.7666016,-20.5717144
755,8.931980133,2.282018661,7.787374973,-66.1062851,149.9786072,-18.70889854
756,9.097421646,1.119618773,8.541132927,-76.59532166,143.1092987,-17.67720222
757,8.682141304,-0.210475385,7.872179508,-95.13542175,157.334671,-14.56514835
758,5.530935287,-2.200902224,9.010490417,-142.1162109,228.5109863,-21.7290287
759,1.112863779,-1.511581898,1.333539963,-64.25462341,204.9925079,-15.68607807
760,-4.757194996,2.128762484,-7.132625103,97.31121063,192.3321533,-2.046162367
761,-5.756750584,1.989224792,4.334510803,91.4956131,167.8399658,-10.63483238
762,-5.246898174,3.074174404,7.840803146,-8.452237129,116.920929,-16.67188454
763,-4.126174927,2.145642042,6.283884525,-32.08262634,97.57705688,-12.67210388
764,-3.542200565,0.204838336,7.509660721,-29.09443474,86.07685089,-7.452374935
765,-3.518190384,-0.164006293,6.573872089,-15.04215622,75.29373932,-0.195691481
766,-3.538864613,0.026521472,7.13526535,12.67549801,73.07047272,-6.168855667
767,-4.018195629,0.800362647,7.76278162,19.81313324,68.10019684,-13.0911541
768,-5.021098614,2.478138685,7.858709335,5.374709606,60.09406281,-7.335086346
769,-5.033002853,2.411452532,8.920789719,-18.23184204,49.11388016,-4.059927464
770,-4.901191235,1.911548853,9.241220474,-32.18622589,38.16237259,-9.776512146
771,-4.968953609,1.088633776,9.187268257,-29.58019066,31.88515091,-11.73136616
772,-5.629794121,0.233932853,8.915455818,-24.73631859,27.91005135,-8.796739578
773,-5.666915417,-0.350988239,8.912343979,-20.12347984,24.44072723,-6.886108398
774,-4.703269482,-0.244879156,8.840877533,-13.26783752,26.30699158,-8.088713646
775,-4.106545448,-0.022158854,8.773469925,-11.52022171,24.53501129,-7.322608471
776,-4.098007202,0.214428619,8.77367115,-11.97880936,16.52992821,-3.552448511
777,-4.638725758,0.410119295,8.916622162,-10.81691647,7.061291218,-1.24407351
778,-4.966371059,0.598963082,9.078264236,-9.105054855,1.501929164,-1.58855772
779,-4.820196152,0.611667931,9.20165062,-5.643419743,-3.030642509,-6.370578289
780,-4.874559402,0.490368068,9.179350853,-3.098197222,-7.27939558,-8.854768753
781,-4.832904339,0.478156537,9.214373589,-4.771224976,-3.210053444,-7.394183636
782,-4.938967228,0.423418909,9.617184639,-8.345555305,0.731492519,-3.987232208
783,-4.989929199,0.186154529,9.647834778,-10.23141956,-0.987165093,-2.880456686
784,-4.876231194,0.198030859,9.418672562,-1.68616724,-2.577361107,-4.071311951
785,-4.645485401,0.174787298,9.43519783,7.02600193,-1.473377466,-4.780823231
786,-4.472520828,0.239105985,9.937705994,10.99256611,-3.423580408,-4.204870701
787,-4.754505157,0.314301938,10.42931747,4.867759228,-6.055388451,-3.057485104
788,-5.070570946,0.161938041,10.47247696,-4.759448528,-8.168781281,-1.289209127
789,-4.843596935,0.106204033,10.17498875,-7.251102924,-15.8912735,2.263441324
790,-4.465551853,0.049304683,10.1108551,2.353120804,-24.83266449,5.608643532
791,-4.235113144,-0.020017009,10.21573353,12.01840305,-27.99393272,3.306802511
792,-3.960987568,0.528912246,10.23650074,14.56374454,-25.40763283,-0.342897415
793,-3.876292467,1.032630205,10.02742767,13.73523045,-18.33144379,-1.87079978
794,-4.1302495,1.416360974,10.13630009,9.436470985,-13.34047031,-4.940956593
795,-4.186846733,1.082315326,10.76445198,2.848572016,-19.235466,-6.85065794
796,-3.325836658,0.472565442,9.831851959,5.545763016,-23.92757988,-4.265272617
797,-2.731336832,0.393263251,9.62485218,6.435296059,-18.69853973,1.098959088
798,-2.685461521,-0.106806658,10.42737675,-0.324923187,-19.06354904,7.588459015
799,-3.118988037,0.095192254,10.25373077,-5.960557938,-18.74231339,6.392407894
800,-3.19250989,1.18767941,10.21184349,-3.679203987,-17.15129089,3.374150038
801,-2.89388895,1.669453979,10.78643608,-3.507313728,-32.07313919,3.05937767
802,-2.671330929,1.818812728,10.96342945,-2.382431269,-50.55949402,5.772219181
803,-2.24377203,1.562982559,10.86910534,-0.327020109,-54.5663681,8.177212715
804,-1.711820722,1.237322807,10.69263268,7.131642342,-50.71681976,8.74113369
805,-1.294937611,0.664969206,10.37735081,15.40227985,-45.51278687,7.304258347
806,-0.953676999,0.121801049,10.14275837,18.55047798,-44.53384781,5.087499142
807,-1.271541238,0.120605953,10.497756,12.56902313,-42.72125244,3.99851656
808,-1.442053318,0.766014159,10.54228878,15.56017876,-48.57804489,4.603130341
809,-0.920571923,1.2843225,10.79310989,17.43049622,-47.326828,3.80751586
810,-0.224722683,1.752735853,10.81625843,13.42034912,-43.1033287,0.572633624
811,0.126217633,1.651350617,10.75362682,8.506391525,-41.98429108,5.552254677
812,-0.011512779,1.550841928,10.45867538,7.326639175,-54.46369171,13.4394598
813,-0.420467854,1.051105738,10.45915604,6.365896225,-66.79135132,19.02862167
814,-0.524089456,0.606967151,10.43464375,1.63459444,-70.72108459,16.98531342
815,-0.393961757,0.417704254,10.49092674,4.503145695,-57.92477417,9.109312057
816,-0.093418345,0.584815919,10.96908855,2.400858164,-28.13597679,0.354564041
817,0.243710518,0.762464345,11.14412594,-6.983205795,-41.54354858,2.760906458
818,-0.344695389,0.487095982,11.41082573,-8.81500721,-81.63886261,6.840610981
819,-0.706276834,0.682957172,11.67613125,-1.431827068,-100.8141708,6.97760582
820,0.392854095,0.918779731,10.94963741,-1.955873728,-104.179924,7.966605663
821,1.268361449,0.953288555,10.62042046,-2.678997993,-92.91382599,10.71583843
822,0.380810291,1.007650018,10.76650047,-4.61317873,-76.65690613,16.75785255
823,-0.06426727,0.290344179,9.602560043,-3.158853769,-81.78779602,16.79435921
824,0.287489325,-0.295798987,8.875101089,12.24036121,-65.56606293,7.725655079
825,0.19193241,0.468547314,9.150485992,20.86654663,-53.47261429,-9.413568497
826,0.40677765,1.786601424,10.17170525,16.59586143,-28.29898262,-8.64330864
827,0.29213503,1.776599169,10.01920319,-6.400311947,-15.19993401,0.442863196
828,0.321208745,1.295950413,9.986784935,-16.77761078,-10.75163841,-2.160498381
829,-0.730330765,1.147450089,10.24084949,-19.0054493,-11.93052864,-8.279457092
830,-0.444936723,0.31602034,9.407681465,0.053517759,-12.25702,-2.964652061
831,-0.394704729,-0.332401544,9.139472961,5.298211098,-1.062978268,1.146264434
832,-0.197093636,0.347125858,9.674104691,4.720145226,-3.159954071,3.672445059
833,0.496823609,1.06047225,9.910383224,11.56528664,-1.365797997,0.110935062
834,1.369524956,1.556091428,10.74683285,6.346860886,2.380527973,-6.857532501
835,1.043376088,1.723671675,10.82538414,-3.032928228,-3.678803444,-2.045238256
836,0.562464297,1.269511104,10.1864996,-20.34770393,-13.90981293,1.864473939
837,-0.192330152,0.874731183,9.83327198,-17.98796844,-12.88929272,-2.824201822
838,0.04891824,0.675321102,10.7236042,-18.19797516,-3.692626238,-4.612751007
839,0.421099305,0.70770669,11.18185806,-13.3886013,-7.703153133,-1.35109663
840,0.507966518,0.825692832,10.64352131,-5.339931965,-14.86546993,0.265367001
841,0.740350842,0.974333465,10.70923042,-10.98487663,-18.96150589,-0.139454991
842,0.924101233,0.858172596,10.03987312,-11.81579304,-13.6093111,-0.052314002
843,1.16936326,0.664676905,10.13896179,-15.16437721,-6.437764645,3.511466026
844,0.888308167,0.497876167,10.24190235,-18.42756081,-7.444432259,5.533075809
845,0.50053376,0.379149646,10.57201576,-19.22453499,-15.03914452,5.69470787
846,0.491198838,0.252652019,10.69642639,-22.60687447,-17.94759178,5.707224846
847,1.027278423,0.309616268,10.50986671,-27.69753456,-15.9150219,6.143682957
848,1.109862804,-0.067884043,10.50179672,-31.56706429,-11.33656502,4.704469681
849,1.081856847,-0.292805791,10.50555801,-32.55783081,-4.892870426,1.055196166
850,1.11075902,-0.35776338,10.5338068,-26.95972252,-2.114199162,-0.759027898
851,1.19826436,-0.324670583,10.18012524,-17.45695877,-4.294191837,-1.821833611
852,0.965855181,0.068150215,10.29090309,-8.262108803,-4.081448555,-4.268920898
853,0.813495636,0.059189539,10.44174957,-4.625231266,-4.254551411,-3.611198664
854,0.752261281,-0.208142221,10.5868082,-7.202281952,-7.011595249,-3.880914927
855,1.119568825,-0.172839656,10.69629192,-8.17611599,-6.681945801,-2.129658461
856,1.409784675,-0.153595582,10.58384895,-3.607946396,-5.300843239,0.255134523
857,0.792733252,-0.283913821,10.42935848,8.842438698,-12.21132565,-4.011630535
858,0.99397552,-0.110674858,10.22433376,13.24180508,-18.33429146,-8.446220398
859,1.290283799,0.144528195,10.35189533,11.85209846,-18.30207253,-6.880325317
860,1.089775681,0.289216071,10.39615059,9.189983368,-18.0371151,-2.449986219
861,0.819022715,0.400302112,10.48402786,2.295137405,-18.09432983,0.011480906
862,1.14173758,0.465339184,10.50239658,-3.264367819,-17.92294312,2.05786109
863,1.305650592,0.344497174,10.54126072,-8.720237732,-15.92668629,3.683725119
864,1.211776018,0.179396331,10.62664413,-9.292669296,-15.06030941,4.082265377
865,0.984189987,-0.055129845,10.80438423,-5.306290627,-16.68018532,4.101410866
866,1.066276431,-0.217440605,10.52038002,1.438353062,-17.04247665,1.859144449
867,1.131889701,-0.116767079,10.34993744,11.12611103,-15.26530266,1.619896293
868,1.042605758,0.101400979,10.1618166,18.43815422,-13.35447884,2.574170589
869,0.932738245,0.290018082,10.21136284,22.52385139,-11.54808807,2.938084126
870,1.05365777,0.437692285,10.49145699,19.48491096,-8.329416275,2.942526102
871,1.156047583,0.475407571,10.66965008,13.23745346,-4.193659782,2.178534746
872,0.998385012,0.541637421,10.84613419,5.480913162,-3.917020798,1.028324366
873,0.740572929,0.590445936,10.97527122,-7.205263138,-5.422516823,-0.40369463
874,0.684711576,0.498268157,10.9696331,-19.57740402,-8.288115501,-1.880359173
875,0.548252642,0.289318204,10.940979,-23.32665443,-9.761380196,-2.636577368
876,0.5331797,-0.028777216,10.96433258,-18.337183,-7.227530479,-2.929815531
877,0.392584831,-0.185875535,11.12136936,-8.305496216,-3.831994057,-2.005218744
878,0.176256031,-0.301202118,11.06153679,-0.295596182,1.740927339,-1.144285917
879,-0.01882495,-0.36937505,11.4175806,-0.511588156,7.895788193,-1.709327817
880,-0.189918369,-0.49510473,11.44036865,-7.514473438,14.94751263,-2.750826359
881,-0.24416557,-0.525251746,11.28515053,-10.74024296,19.11219597,-3.970794916
882,-0.240562633,-0.445955098,11.09460735,-20.86480522,19.48576927,-3.9467237
883,-0.191372722,-0.186841711,10.92552471,-28.08291817,20.22951508,-3.561563253
884,-0.413196534,0.154789418,10.79074097,-30.1057148,22.96319962,-1.609587073
885,-0.806621492,-0.05167181,9.996604919,-30.08529282,23.78939629,1.784849524
886,-0.999162436,-0.313319087,9.242248535,-24.48649788,24.52217102,3.723852396
887,-1.248700738,-0.730903089,9.226396561,-20.17503548,21.68482399,4.105401993
888,-1.092754841,-1.307797313,9.207316399,-14.07714367,21.33133507,2.496315718
889,-0.831806481,-1.579094768,9.194818497,-11.80418587,19.95139122,3.806317091
890,-0.339113146,-1.715094209,9.117822647,-5.357827187,19.65250969,7.116046429
891,0.079525538,-1.635743618,9.391236305,3.433248281,21.68271637,8.386831284
892,0.561947107,-1.163536787,9.603317261,14.9755125,21.4596138,6.723350048
893,0.757115602,-0.426642418,9.734339714,27.77576447,22.64215088,4.655103683
894,1.109248042,0.056089856,10.19256115,32.34113312,19.96499062,5.740341187
895,1.719911575,0.029561924,10.09584045,23.3218956,24.99884415,11.90288448
896,2.164832115,-0.156090215,10.12247944,15.35874081,30.4793644,22.82090378
897,2.455656052,-0.404165387,10.63359833,13.71362495,38.09198761,27.98875046
898,3.48061204,-0.686321378,12.0061779,-0.896697044,47.04948807,25.60612679
899,4.441557884,-1.393361688,11.85689926,-23.37943649,53.35540009,17.52892685
900,5.535653114,-2.069919348,11.17829418,-23.62468147,58.79038239,5.310760021
901,5.98496151,-1.962454557,11.6713438,-14.99492073,64.12880707,-2.848117828
902,5.337222576,-1.107371569,12.64926815,-16.16163826,69.45988464,-6.171620369
903,5.324275494,-0.559613705,12.24712372,-18.37363243,60.33588409,0.731476963
904,5.713978291,-0.955490887,8.659573555,18.25743484,40.47080231,10.94952869
905,5.595266342,-0.189464286,6.894294262,67.25820923,54.41827011,6.832297802
906,5.093458176,0.235779926,7.411623478,99.83959198,54.82312012,0.633469343
907,3.910020113,-1.2321558,4.660576344,69.89286804,34.98350525,-5.209037781
908,1.403460741,0.440319866,1.387713313,82.75045776,0.507726908,-17.36377144
909,-0.49856016,2.190378666,3.307166576,79.4703064,13.44446087,-24.09576035
910,-3.736694098,2.38072443,6.71374321,8.599309921,5.664617538,-9.068552971
911,-6.581609249,3.553638697,6.981348515,-59.2625885,-12.54951477,-3.674791336
912,-6.7265172,2.998939037,6.157125473,-65.74462891,-30.23783112,-1.20492053
913,-2.934751034,1.288594007,14.47949505,-73.67183685,-28.79976654,3.094479322
914,-1.151032448,-4.068703175,14.01351929,-107.0748825,-41.35086441,-4.27761507
915,0.419373125,-2.310936213,12.67155647,-66.0202179,-26.86025429,-13.14383602
916,2.208236933,-1.706902504,12.71147442,8.581817627,-12.60382938,-6.659948349
917,0.730181396,0.428507507,10.7919054,33.46818924,-25.72258377,-1.757515907
918,-0.353130519,0.0630619,11.27527714,29.51316261,-36.86054993,-6.632813931
919,-0.459585458,0.209183052,10.46597004,17.08939743,-53.03735352,-10.29567337
920,-0.196862519,-0.601598918,9.598193169,4.671420097,-59.57967377,-8.233046532
921,-0.087499991,-2.676596165,9.125464439,6.79862833,-45.34142303,-3.515702248
922,-0.546316504,-3.134170771,10.16413212,30.68840599,-29.67281532,1.018194556
923,0.047957756,-0.802543581,11.41239548,56.63620758,-25.98000526,0.215540215
924,1.267175913,0.808749795,11.61622906,48.48410034,-18.55115891,-0.411932945
925,0.847953737,1.483001232,10.54284954,26.49800682,-5.428946972,-7.163417816
926,0.421356618,1.662396431,10.70769024,21.99409294,-9.424738884,-8.89378643
927,0.174393892,1.286450028,11.22051716,27.83619118,-25.2787571,-3.495484591
928,0.173207998,0.768744767,11.51433086,33.70596313,-28.70800209,-2.446759701
929,0.251699358,0.492642045,11.70867252,34.90427017,-29.29979134,-4.47059536
930,0.31596005,0.490448505,11.86308384,31.99168015,-25.33030891,-5.93746233
931,0.447906226,0.682634294,11.96266079,31.18656921,-13.74875641,-8.180608749
932,0.757977784,1.175588846,11.91149235,33.30784988,-2.363518238,-11.28141308
933,1.091361284,1.955566883,12.06935692,26.7953968,-2.360985279,-10.25995159
934,0.939098716,2.603826523,11.80336094,13.05128098,-13.41752338,-3.712911367
935,0.395309001,2.406226873,11.52738857,1.029215693,-18.68650055,1.606027126
936,0.165108219,2.004845142,11.56119728,-0.806519389,-20.09258842,3.383448601
937,0.332815886,1.65711832,11.43306732,0.704581082,-22.67823601,2.21324873
938,1.019684076,1.428247333,11.07251167,3.072633982,-24.10283852,0.168262973
939,1.46865952,1.30266273,10.9932766,2.830721378,-24.35577393,-1.052037477
940,1.514915943,1.652644515,10.94795704,-2.320866823,-21.31510735,-2.226944685
941,1.549747348,1.695747256,10.82662201,-10.93113995,-21.54465294,-3.115228176
942,1.340603828,2.000440598,10.4284153,-20.39152527,-20.54812241,-4.64099741
943,1.259576797,1.624552488,10.93807316,-33.08667755,-14.48428249,-2.506758213
944,1.415184855,0.850893199,10.64980412,-43.06227875,-12.45442963,2.499567509
945,1.609983206,0.108338043,10.32984257,-45.44392395,-4.827235222,2.493395329
946,1.953038216,-0.258939564,10.55679035,-38.2129631,-7.057226181,1.681367397
947,1.798837543,0.000738647,10.57758522,-36.47073364,-8.216549873,1.013473868
948,1.569507837,0.354618579,10.79097462,-37.7039032,-10.99224854,2.301140785
949,1.601241469,0.573785782,10.61154652,-35.10668945,-18.05054665,3.32194066
950,1.917227387,0.291342914,10.39958096,-33.95825958,-25.74653053,3.432290077
951,2.039515972,-0.200061113,10.39350224,-35.10076523,-34.10684204,3.384599924
952,2.172068119,-0.462797552,10.59397221,-29.87671661,-48.79844284,4.532584667
953,2.431298971,-0.588368952,10.79339886,-25.64993668,-67.18201447,5.025310516
954,2.837304592,-0.047298938,11.40310097,-17.68021965,-83.32865906,4.668846607
955,2.949922562,0.481459409,11.35510921,8.767788887,-100.1002731,6.440331459
956,3.328048944,-0.004667427,10.41120052,23.50418472,-116.2743301,0.834349453
957,4.149966717,0.040968161,10.77533722,31.01043129,-151.5452271,-0.628806353
958,4.540626526,-0.792897344,9.712472916,36.87778091,-168.8194122,8.682090759
959,5.568615437,-1.209421635,8.441882133,33.19573975,-153.6033478,6.454508305
960,6.411489487,-0.329964578,8.350447655,41.91341782,-139.2056122,-0.175050244
961,6.389850616,0.397916257,8.671257973,46.91034317,-134.551651,-0.379863501
962,6.484677315,0.732198298,8.805830002,42.03939438,-129.30867,3.510942221
963,5.896395683,1.08331883,8.802980423,31.81276131,-128.7906799,7.066655636
964,5.748229504,1.151206493,8.877948761,16.60530663,-128.7899323,12.96077347
965,4.981274128,0.894130349,9.265425682,5.892510891,-127.4609451,13.91952324
966,4.927334785,0.507452369,8.585289955,-4.346683979,-122.5981674,15.24199772
967,4.303650856,0.391117573,8.471150398,-10.31310463,-110.6605911,15.573246
968,4.091646194,-0.046685416,7.711053371,-6.24777174,-100.0506668,15.48832989
969,4.158000946,-0.091589466,7.069268703,3.621330976,-75.01017761,10.84507847
970,3.436505318,0.154316828,6.968152523,9.057173729,-56.99503326,5.945847034
971,3.136354446,0.728279769,8.272778511,1.334388256,-48.74082184,6.900126457
972,3.151076794,1.036185265,8.777460098,-16.28886223,-48.49568558,12.34803486
973,3.242992163,0.91896069,7.776758194,-23.77964401,-34.07953644,7.45177412
974,4.545506954,1.344384074,7.907139301,-18.38674927,-36.47367477,-5.088876247
975,4.122974396,0.43833217,8.326526642,-10.35123348,-36.2989502,-5.024661064
976,3.736059666,-0.442452788,7.426236629,-15.90513515,-23.6416893,3.370967388
977,3.757251024,-1.566642523,7.130759239,-16.70975494,-2.288881302,5.273014069
978,4.196959019,-0.262559652,6.21972084,-31.72968864,19.12406349,5.693199158
979,5.081951618,0.440643489,6.262093544,-21.64934349,37.5389061,-1.82861793
980,6.375359535,0.212255463,6.398776531,-28.11994171,48.99102402,-13.07769203
981,6.800672531,0.038087886,6.669234753,-34.80096436,49.04323578,-16.54159927
982,6.109649181,-0.447330385,6.023962021,-52.10692596,68.40433502,-6.383326054
983,4.453307629,-0.834179282,4.869263649,-48.08883667,95.11512756,10.05614948
984,4.248474598,-0.875754237,5.060302258,-28.92654037,120.5444412,21.10006523
985,4.765404701,-1.366624355,5.977406979,-26.70860863,127.1978607,20.92187691
986,5.541268349,-1.499414444,6.245219231,-9.29826355,154.0112915,16.30541039
987,6.082834244,-1.297686696,6.936682224,2.754888535,163.8408356,10.18350697
988,6.777273655,-1.157936931,8.291254044,7.757610321,167.7434692,4.840135574
989,6.386377811,-0.685516596,9.044581413,-8.219834328,160.1448517,2.498008728
990,6.61855793,-0.088750333,9.033499718,-21.40270996,153.8282776,8.843187332
991,6.880051613,0.428724527,9.314454079,-27.37670326,145.0517731,24.48740768
992,6.03763628,0.485438734,9.608091354,-26.44055176,144.5333405,37.13303375
993,5.384265423,-0.238346145,10.96958733,-22.14433861,145.9628754,36.0174942
994,6.843318462,-2.390525818,13.39227486,-35.28396225,157.8537598,30.3631382
995,9.134368896,-3.966573954,13.43926334,-63.18874359,142.5231018,16.67024612
996,9.79433918,-3.453739882,12.85681343,-53.01817703,133.5462341,4.952825069
997,9.609022141,-2.028860807,10.79618359,0.775199115,151.6673889,-0.471209407
998,9.126288414,-1.265890837,7.786744595,64.01035309,147.5358276,11.39086342
999,7.938763618,-1.153668642,5.498099327,112.6595383,137.6062317,20.65955162
1000,6.021953106,0.642003,3.187244654,156.4094086,130.1827698,10.85639095
1001,5.370359421,0.154879063,4.226586342,120.7162704,111.8415909,2.827591896
1002,2.495141745,0.954744756,1.535441279,72.81026459,87.64518738,-12.80737877
1003,-0.279902458,3.096873522,1.513329625,38.49664307,90.90615845,-22.56536102
1004,-3.93252182,2.15705204,5.804994106,-46.66966248,86.13929749,-9.588396072
1005,-9.987435341,0.956793547,7.545301914,-68.97538757,28.92559814,10.24968433
1006,-13.55762482,1.655332327,7.71573782,-39.61547852,-18.97783852,14.35193825
1007,-5.91750145,0.099248514,11.24601841,-58.86672974,-34.64438629,11.93327999
1008,-0.737791121,-4.553668976,18.36164665,-64.14113617,-26.43419075,-4.314007759
1009,1.019551039,-2.24143815,10.56861496,-31.4491787,4.872463703,-22.03126144
1010,2.241420031,1.027198076,10.00430775,49.45139313,-11.50531864,-8.913635254
1011,0.658821404,1.680585027,10.44245243,34.72324753,-23.08956146,6.375578403
1012,-0.516572654,0.000401632,11.41425991,2.248538971,-26.49596596,11.09583092
1013,-0.039738268,-0.910164535,10.84046268,-9.261184692,-48.7743187,-1.014732838
1014,-1.136308074,-1.839265347,10.12475967,-13.45014381,-41.85649109,-8.9237957
1015,-2.288396358,-3.418292761,9.824742317,23.11791801,-48.54662704,4.021343708
1016,-1.542472601,-2.694515228,11.4233036,44.96574402,-37.93381119,3.041167974
1017,-0.430309296,-0.24633655,11.78300858,62.99722672,-24.09186172,-3.072651386
1018,0.690290868,0.655067921,12.22452259,42.8379631,-11.10549927,-0.396653831
1019,0.284179926,1.66731441,11.8634901,22.40265274,-18.62017632,-11.67338657
1020,0.499027818,2.874370098,11.72145081,34.41581726,-26.61956596,-17.53266144
1021,0.610190034,1.682953596,12.27274227,43.02091217,-19.64299583,-14.29786301
1022,-0.490059227,-0.491985798,12.85631657,35.21970749,-24.76997948,-10.28380013
1023,-0.99165833,-1.766036034,12.24397945,29.72080994,-24.45175743,-8.181905746
1024,-0.529360175,-1.401518703,12.12119198,26.51478386,-12.73727608,-7.748776913
1025,0.153139278,0.252874076,12.15031433,21.24249268,-3.795392275,-3.935071707
1026,0.611150026,1.008279085,11.37353516,20.46519089,1.21108532,-1.280732751
1027,0.534234583,1.179853201,11.55100918,16.66528702,-9.608512878,-0.251094401
1028,-0.11128556,1.7681005,12.00134373,0.298100293,-21.09670448,-1.245573282
1029,-0.495206982,2.297071218,11.75721741,-18.69290543,-20.6157856,-5.506208897
1030,-0.528021276,1.910004258,11.84739399,-32.70639038,-20.73664093,-6.918591022
1031,0.259917498,1.062790036,11.95190144,-37.06721115,-30.52098846,-7.858642578
1032,1.034623861,0.134010419,11.38982201,-23.91915703,-35.88959122,-8.668511391
1033,1.167235732,0.335258871,11.59221458,-8.546551704,-41.10441971,-8.705581665
1034,0.897333741,0.705247104,11.85819149,-5.178929329,-42.8812561,-6.018595219
1035,0.628637671,0.724099278,11.39939117,-15.07423496,-42.55332947,-3.313283205
1036,1.397850156,1.248679042,10.21831226,-14.94592381,-40.25247574,-6.098802567
1037,2.028652668,0.114280201,11.19356155,-22.26018524,-43.39910889,-9.395620346
1038,2.158289433,-0.40681535,11.27356625,-27.68865776,-47.79292679,-8.262061119
1039,1.818652749,-0.121905372,11.45669651,-28.4638176,-44.5246048,-8.749629974
1040,2.146725416,-0.193983525,11.4454565,-18.90265656,-44.12906647,-14.04830456
1041,2.540672541,-0.302464515,12.50321579,-9.136559486,-38.52874374,-19.06201172
1042,1.93547976,-0.615550995,12.90667343,13.89097023,-53.14157867,-10.88003063
1043,1.640179276,-0.672207892,11.66205692,19.55432892,-94.17918396,-3.150829315
1044,2.1860466,0.133524552,10.00243378,19.38074112,-128.4588623,1.089033484
1045,3.572443008,0.86374855,8.495903015,16.82669449,-154.0050507,3.329016924
1046,4.305659294,0.710854292,7.91028738,20.40033531,-160.85495,6.789226055
1047,5.439963341,0.525659263,9.106583595,22.31848526,-162.3309937,11.06265736
1048,5.957760334,0.33404851,8.276596069,26.86885071,-157.0352325,12.12987614
1049,6.446725845,-0.251115471,8.592267036,25.14120674,-149.0201569,6.178262234
1050,6.419681072,-0.530708015,8.604557991,28.54512405,-152.5656433,3.912307739
1051,6.437341213,-0.074872509,8.691373825,32.93319702,-157.6159668,7.013637066
1052,5.732279301,0.610334575,9.566375732,39.47579575,-173.9616699,10.87581921
1053,5.746006966,0.763486505,9.858088493,28.92784309,-191.2591705,13.93082142
1054,6.178023338,0.770073473,9.062074661,16.72039986,-182.293457,13.2786808
1055,6.110048771,0.681438446,8.419265747,6.754542351,-150.6556549,9.782308578
1056,5.995810032,0.340034932,8.254489899,3.396266937,-123.199852,11.2777977
1057,5.590343952,0.10942395,7.891680717,0.752104461,-109.707077,13.09529305
1058,5.082845688,-0.124178968,7.932752609,0.008446051,-93.2803421,11.34220123
1059,4.690068245,0.748596072,8.200641632,-0.620429337,-76.33657074,11.07204437
1060,4.336690426,1.497439384,8.55611515,-10.67505074,-61.43596268,11.35326481
1061,4.553393364,1.370908856,8.364979744,-23.04126358,-47.65467834,10.86371708
1062,5.498192787,0.454521537,8.201807976,-14.4910078,-43.32558441,10.36379147
1063,5.454864025,-0.064595439,8.670764923,10.41627598,-46.85612106,-2.632046223
1064,4.720574379,-0.331537932,7.56363821,6.955806255,-10.86388969,-5.419920444
1065,4.366731167,-0.583384931,6.888583183,24.01428032,10.74226952,-8.148227692
1066,5.097752094,-0.029246716,6.98445034,10.91058826,36.67049408,-8.172210693
1067,5.194625854,0.931000233,6.740133762,0.493018687,58.40007782,-13.70117569
1068,6.762757778,1.54284668,6.26248312,7.170836449,64.87661743,-21.83503532
1069,7.458711147,1.724072218,6.288139343,3.443525791,81.78798676,-15.18599892
1070,6.637976646,0.747204006,5.128385067,-26.56636429,112.6082077,-7.720251083
1071,4.728168964,0.485338062,4.407515049,-39.88952255,136.0254974,-0.223332927
1072,3.234599113,0.520711541,4.657913685,-44.61429214,138.3551788,9.191567421
1073,3.573881149,0.361522615,5.278168678,-37.70914841,162.2256927,13.15561676
1074,3.836974144,-0.07997939,6.15501833,-31.0548687,172.7851105,11.40976238
1075,4.747864246,-0.327705264,7.074641228,-28.02376938,174.7321167,5.734400749
1076,5.604749203,0.476429433,8.087136269,-22.28110313,178.4798584,2.22146368
1077,6.444797993,0.520448446,8.715992928,-34.2476387,181.1103058,3.354378223
1078,7.062369823,0.062759168,9.199026108,-57.18207169,182.508667,6.423821449
1079,6.226279259,0.322316289,9.03413105,-52.63539505,184.604538,9.896697998
1080,7.212604046,-0.604310989,9.878355026,-47.64616013,182.3206635,16.43234062
1081,7.874776363,-1.938281775,10.15426254,-61.66352081,162.7960663,26.29300499
1082,6.800930977,-2.290995598,8.60332489,-24.34910011,167.4273071,19.78864479
1083,6.576487541,-1.141458392,9.498375893,20.54062462,144.5614624,-7.324699879
1084,7.208786011,0.547677636,12.25228691,32.78053284,104.8411865,-20.35938644
1085,8.098031044,0.950567186,11.85302353,-0.641487181,101.2022629,-13.09474945
1086,9.04719162,0.273176104,11.03002834,-20.98287773,128.2212372,-6.304365635
1087,8.887401581,-0.981018424,11.02457428,-27.71049881,162.2134857,-2.920497656
1088,6.486814976,-1.293386698,11.1951685,-17.61468506,184.9680939,-0.162308216
1089,3.880199671,-0.592425764,5.615740299,18.25881767,109.9252319,8.842573166
1090,1.184224129,-2.055312395,2.624600172,15.08139038,77.55062866,3.285996437
1091,-0.047422823,-0.933219314,-1.113988638,31.43785477,47.33916855,-13.64784813
1092,-2.234353304,0.102620997,4.364523411,14.17474461,33.06633759,-14.88283062
1093,-6.71620512,0.564123869,7.741821766,-17.19959259,-5.540410519,4.766003132
1094,-9.736563683,1.39754355,4.644041538,-4.151107311,-27.28258324,10.3705492
1095,-5.790789604,1.119881511,12.40137863,-35.90473557,-6.464046478,14.54344368
1096,-4.112612724,-6.177381039,17.24759865,-101.949913,7.579231262,23.51924515
1097,-1.495376706,-5.162582874,12.29274273,-79.48231506,7.078344345,3.925810814
1098,2.908233881,-2.244571447,10.16372013,10.46143436,-12.14232731,2.283828974
1099,1.690465331,-0.227105021,9.437327385,59.85643768,-20.49406242,14.25664425
1100,0.460249901,-0.150937945,11.88758564,69.32928467,-21.86301613,29.74724388
1101,0.589347959,1.283835053,10.74325562,31.00211906,-72.19689941,8.388656616
1102,-0.224769533,0.033584539,11.03752995,-2.193271875,-85.52156067,-2.834259033
1103,-0.232581064,-3.377296448,9.993301392,15.18163776,-46.0908165,1.79759717
1104,-1.402975917,-4.268474102,11.19752216,28.32865524,-1.237724423,2.76390624
1105,-1.296964765,-0.110817969,11.56407452,6.109136581,-2.905927896,7.216642857
1106,-0.634655714,1.442271709,11.48683357,-4.857973099,-13.6475563,22.75479507
1107,-0.018997736,0.831145883,10.92802429,10.10765362,-29.00124359,21.0945034
1108,0.778042495,0.887552917,11.86103725,24.64624023,-35.15177536,0.937129915
1109,1.456913829,0.607460022,12.33996487,41.44110489,-22.49915314,-5.885857582
1110,0.666040301,-0.379891455,12.17250252,29.18567467,-5.643558025,2.467182875
1111,-0.487012565,-0.971974134,12.32237244,21.204813,-4.823827744,6.812996387
1112,-0.34979102,-0.381744206,12.16025352,24.18395615,-12.98251247,4.90697813
1113,0.244971678,0.302378446,11.65914154,28.0539093,-3.789966106,-0.520534694
1114,0.29857862,-0.02588778,11.6899128,21.48700142,5.368847847,-6.521389961
1115,0.221890047,-0.829712689,11.80584717,13.96064854,10.90219402,-6.637769222
1116,0.298419535,-0.771080792,11.7356987,10.61803055,12.50016785,-2.415817499
1117,0.276481092,0.060175885,11.60994816,9.263087273,9.838643074,-0.618739188
1118,0.16944088,1.089326382,11.55930901,6.610106945,5.843045235,-0.708818734
1119,-0.079776891,1.563873172,11.73811817,2.110153675,2.214819908,-1.145303965
1120,-0.113416255,1.800375462,11.42725277,-6.468636513,6.070557594,-1.36214149
1121,-0.287287027,1.965493202,10.42082596,-15.60038757,11.42553234,-2.388227224
1122,-0.415252447,1.687199116,10.08214283,-16.13246155,9.176241875,-3.467989683
1123,-0.490097851,1.502465129,9.86719799,-9.353953362,1.482418776,-3.169931412
1124,-0.240794525,1.073432326,9.337936401,-15.91182423,1.714316845,-0.701032937
1125,-0.038205117,-0.621936381,10.23087788,-32.90440369,-8.771208763,3.528708696
1126,0.238827139,-1.547558665,11.02863216,-29.94676971,-27.13071632,4.545928001
1127,0.305820584,-1.688682914,11.69351864,-15.58573914,-34.32331467,-2.272357225
1128,0.454298913,-1.235684514,12.50940418,-4.057436943,-36.98832321,-6.857943535
1129,0.529895782,0.029384971,12.57408905,-2.361871719,-42.71835709,-7.230597019
1130,0.760912597,0.982683182,11.93290615,-5.917347908,-46.44456863,-5.062619686
1131,1.1036129,0.523935378,11.08576012,-7.467823982,-45.7328186,-1.485919237
1132,1.342999697,-0.552766919,11.16626167,-7.566795349,-52.06521988,0.860742331
1133,1.322486877,-0.874697447,10.73287582,-3.495133162,-54.68853378,-1.203246236
1134,1.250482321,-0.87408179,10.83255768,7.072153568,-52.67874146,-5.235404015
1135,1.901200175,-0.519857347,10.9216013,10.44524479,-59.30255127,-7.559366703
1136,2.280993462,0.069344275,10.49896431,13.8296051,-75.76354218,-6.792374611
1137,2.805167198,0.151358455,10.6644392,11.47098732,-95.10960388,-4.699865341
1138,3.035259485,0.319852918,11.28190422,10.3331604,-117.032753,-5.629216194
1139,3.289689302,0.559412062,11.77728558,25.22442055,-139.8546448,-3.656216621
1140,2.92280364,-0.214905083,13.1392765,49.90215683,-137.3530731,6.031137466
1141,2.594547272,-0.473231047,10.65623379,62.03681183,-161.844101,14.22129631
1142,4.498043537,-0.587358296,7.946000576,68.50227356,-180.7972412,13.48561096
1143,5.974742889,-0.603657842,6.663081646,61.17851639,-170.432724,9.60357666
1144,6.665853024,0.044718362,7.618705273,49.27003479,-155.6170044,3.315529823
1145,6.198424339,1.128831625,8.945399284,43.23532486,-162.4815216,1.605198622
1146,5.388492107,1.90135932,8.930802345,31.87952614,-162.9515839,1.077547669
1147,5.604511738,1.738845348,9.474844933,35.37739563,-155.8284912,4.387037754
1148,5.737715244,1.405482411,9.58940506,35.07425308,-138.7209015,10.79831123
1149,4.824343681,1.418165445,8.817827225,31.2813549,-116.4286728,18.96135712
1150,4.629332542,0.460489661,7.972706795,26.31978226,-88.34964752,20.82363701
1151,4.525163651,0.258823991,8.010457039,21.67910194,-68.70927429,16.25363922
1152,3.457583189,0.105269797,8.812882423,23.85453033,-67.93609619,15.01075649
1153,2.885067463,0.423077643,8.621383667,19.15715981,-65.01203918,15.63244724
1154,3.262456656,0.771453202,8.633992195,21.59306335,-61.03816986,14.46921444
1155,3.575320959,0.797074437,8.296323776,15.02023983,-55.34019089,9.300204277
1156,4.083393097,1.656626225,7.700682163,8.636042595,-44.25474167,2.347593546
1157,4.788377285,1.656088591,7.698972702,-3.436137915,-34.64461517,-2.181174278
1158,4.3983078,1.148096919,7.199484825,-25.34400749,-9.345060349,2.298406124
1159,4.880451202,1.032171607,6.514888287,-23.61336517,1.130604267,-1.588451385
1160,5.302177429,0.932182789,6.727361202,-31.47296906,27.79488945,-6.745083332
1161,5.744447708,1.402057171,6.706840515,-36.36871719,35.36166,-6.198803425
1162,6.802088737,1.529826522,6.591835499,-29.46397781,37.47812271,-8.299813271
1163,6.95870924,1.463107824,5.988993645,-31.94413948,57.64834213,-12.64644432
1164,5.826096058,0.670042694,5.591651917,-33.19335556,87.15875244,-13.33198166
1165,4.490862846,0.067246914,5.477502346,-33.54067612,109.3735046,-6.790099144
1166,3.421633482,-0.108721167,6.620044231,-30.54423141,123.5282516,0.750475705
1167,3.542298317,-0.372823566,5.964348316,-29.17944336,131.4003754,3.879720449
1168,4.419804096,-0.230713338,5.87441206,-20.08604622,146.6546478,-1.702646136
1169,5.139761448,-0.28207922,7.897954941,-21.18127823,151.808197,-2.054577589
1170,5.266983032,0.083672635,8.796700478,-28.65727425,153.2274323,0.18472819
1171,6.667982578,0.082868092,8.803196907,-40.42312241,158.7842255,1.459556103
1172,7.550997734,0.021729611,9.014673233,-50.17288208,157.0646057,1.803684354
1173,7.449142933,-0.07848835,9.420232773,-50.43590927,150.9864349,6.869441032
1174,6.810760021,-0.041206188,9.296111107,-40.53480148,145.8010406,12.92528915
1175,6.272116184,0.329187751,9.444015503,-19.08567047,132.266922,18.78538513
1176,6.792482853,0.377154201,9.906620026,1.082365155,119.6399994,16.81710815
1177,8.364639282,-0.098453082,12.36388683,-16.14012718,116.1449661,12.06736183
1178,8.297442436,-0.244152114,10.97209835,-26.11886024,116.2968674,9.591761589
1179,8.481564522,-1.160805821,10.47168922,-42.59448242,123.0370789,7.516856194
1180,8.478502274,-1.566646934,10.43537235,-28.60290527,111.5264359,14.6240654
1181,7.928254604,-2.240881681,9.563165665,6.62153101,100.7646103,23.69135094
1182,7.212420464,-2.194406986,5.381965637,63.73498154,117.5506592,6.733254433
1183,4.783239841,-0.781231344,2.574114799,106.2229233,113.104538,-12.73056221
1184,1.965936303,0.035833396,1.772211313,79.05903625,90.02403259,-20.79612732
1185,-1.673306584,2.923538208,0.811390221,74.17228699,73.33995819,-8.048044205
1186,-5.458775043,3.211740017,6.057929993,12.67185783,21.86445427,19.38698196
1187,-10.10671806,2.153825045,8.03483963,-41.76403046,-19.21286392,21.76586533
1188,-9.172055244,2.332215786,10.53645325,-65.05115509,-34.81888199,8.484807014
1189,-5.095611095,-1.00755167,10.42488575,-96.75852966,-24.72227287,6.404482365
1190,0.001429232,-6.515245438,18.39730835,-105.9120026,-8.561845779,3.27555275
1191,3.596562624,-1.347079277,11.19957447,-39.61927032,-0.141241997,-1.460226417
1192,5.167479992,0.677675068,10.15203285,50.27135849,-9.670368195,-1.367576838
1193,2.770503521,0.759932876,11.40192795,30.31219292,-12.71251678,6.692259789
1194,1.03959024,0.578054488,11.65098572,7.804742813,-25.76852226,8.701457977
1195,0.300625771,-0.357437044,10.89900112,0.75898999,-57.56581116,5.553448677
1196,-0.702948213,-2.334195614,10.86402607,-6.645610809,-62.46535873,9.407140732
1197,-0.334578484,-5.320127964,10.51976299,23.446064,-41.66966248,1.658320189
1198,-0.000544066,-2.231983423,10.84472942,64.13755035,-17.40402794,-12.73083878
1199,0.398461103,0.461138487,10.62861443,75.5005188,-0.739159107,-7.16432476
1200,0.990226805,2.298853636,10.38739395,67.11794281,-6.564230919,4.215182304
1201,1.30566442,3.681539774,10.64898682,51.02597809,-9.948707581,-1.794058681
1202,1.562573671,3.830258131,11.52179527,29.86177444,-38.05299377,-5.193100929
1203,1.847711205,1.822927475,12.8625164,16.45191193,-50.13678741,-4.059940338
1204,1.436316848,-0.71021682,13.43496513,15.36856651,-33.80545425,-5.426071167
1205,0.869769812,-2.076280117,13.06658363,20.73945999,-13.27485943,-6.6639781
1206,1.078461051,-1.268895507,12.12049675,22.7997303,0.141183868,-4.482038975
1207,1.274879932,0.487117231,11.51974392,27.57279205,11.50835896,-3.014246225
1208,1.358581901,1.504073262,11.6149292,24.37586594,17.79507065,-5.059389591
1209,1.477702022,1.880370021,11.74085903,8.046028137,14.71522427,-7.123539925
1210,1.341385484,1.97979939,11.39087582,-2.030792713,7.476751328,-3.135686398
1211,0.854212642,1.853238344,11.31036568,-6.020305157,3.295106888,1.106872439
1212,0.595340729,1.393491507,11.12139416,-7.204763889,3.507922411,0.845673859
1213,0.811616659,0.995986402,11.09865665,-9.498597145,9.994799614,-2.449990749
1214,1.137188792,1.014778018,11.03289318,-10.05805779,11.2824173,-2.549215078
1215,1.258234739,1.277579069,10.76597309,-12.09258366,7.930600166,-0.424889386
1216,0.795435429,1.374385834,10.68253326,-16.53776741,8.693286896,-2.062913179
1217,0.377849221,1.213865399,10.94219398,-20.38097954,7.846968651,-1.487933874
1218,0.391008884,0.694797277,11.22895718,-24.94713211,2.811518669,3.245680571
1219,0.843920648,0.297883719,11.19411278,-18.73215866,3.679032803,8.19116497
1220,1.12354362,0.405660123,11.33318424,-7.923923492,9.017695427,10.23429966
1221,0.856193125,0.688255847,11.50856781,-8.294149399,11.7007885,9.516368866
1222,0.515790045,1.087191343,11.62333298,-14.02618122,5.634549618,7.716454029
1223,0.358619899,1.462685704,11.73294258,-21.17858887,-3.760750532,4.363360405
1224,0.645784378,1.346020579,11.6736393,-19.98476601,-14.4359808,1.922992826
1225,1.191610456,0.736795664,11.23911476,-10.18679905,-25.13829041,0.323060215
1226,1.491162062,1.260104775,11.0173111,-1.571229696,-33.07372665,1.883392215
1227,1.357097507,1.469516397,11.15571499,-1.84744513,-34.16208267,3.019211769
1228,1.107838631,0.913831532,10.72154236,-11.6061182,-30.56752586,4.457183361
1229,1.171350002,-0.213047907,10.61452579,-22.49388695,-31.3661747,7.184022903
1230,1.696611762,-1.152465582,11.23840427,-30.39800644,-41.8674736,8.975776672
1231,2.207463026,-1.115324259,11.88730049,-24.12702751,-52.51864243,7.842772484
1232,1.989439964,-0.615758955,11.56919575,-1.187269807,-66.51434326,7.263267517
1233,2.372142076,-0.08071164,10.72484779,4.835543156,-86.34925842,2.866975546
1234,2.710722685,1.295591712,9.638066292,6.579767704,-119.7259064,-0.637301803
1235,3.195216417,1.991515279,8.754653931,26.79783821,-141.6663971,-0.674623907
1236,3.916584969,0.561796606,9.139705658,38.86925507,-142.7871552,5.623272896
1237,4.612597466,-0.478239477,8.540763855,27.22385216,-142.0443115,6.347602844
1238,5.625267506,-0.605278432,8.241991997,15.47357559,-140.7270203,3.89958477
1239,5.961776257,-0.504780293,8.448531151,24.04383278,-142.1555176,4.923357964
1240,5.815000057,-0.287607521,8.913946152,26.21852303,-148.3057404,7.460520267
1241,5.620011806,0.298396379,9.530355453,23.70762253,-156.6255493,9.694235802
1242,5.006778717,0.851567984,9.019788742,19.10328102,-151.5455322,10.26673222
1243,4.826346397,0.663929701,8.452664375,20.27801132,-138.3315277,10.39917374
1244,4.670539856,0.331839561,8.430170059,15.29793644,-124.7256088,12.46747017
1245,4.535587788,0.070600435,8.836913109,7.618708134,-109.7329712,16.5051403
1246,4.683996677,-0.081935458,8.708469391,-2.014578104,-92.30049133,16.41208458
1247,4.408382416,0.176651806,7.628741741,-5.881112576,-72.9442215,15.2533884
1248,3.663816214,0.847170353,7.371760845,0.222481549,-62.52733612,15.11057949
1249,3.074212551,1.528995991,7.957564831,-4.256991863,-60.09427261,16.33633041
1250,2.625847578,1.959015608,8.281430244,-14.22826481,-60.16102982,17.03811646
1251,2.912587404,1.607757211,8.262355804,-32.85544586,-57.27637863,13.59141064
1252,4.288907528,0.67262435,8.439922333,-48.73613739,-53.95426559,14.21882629
1253,3.785744429,-0.086388484,8.198688507,-51.46131897,-47.0872345,5.634525776
1254,3.502489805,-0.371047914,7.74423933,-33.02498627,-30.95618248,-4.611318111
1255,4.901422024,-0.62540251,7.667330265,-23.84905434,-7.282847404,-8.815361977
1256,6.048075199,-0.585337579,7.457884312,-10.27077198,14.8917408,-8.881677628
1257,6.758774757,-0.425345778,7.062700748,2.558290005,33.70648193,-6.755709648
1258,7.229557991,0.42664215,7.318018436,-2.428566217,49.5023613,-7.275414944
1259,6.778921604,1.511634231,6.304575443,-2.148759127,51.2951355,-6.927456379
1260,5.800165653,1.110885859,5.395166397,-12.63938618,79.12313843,-6.713139057
1261,4.896158218,-0.424748957,4.847948074,-37.02409363,107.2895203,-4.704139233
1262,3.949070215,-1.32602036,5.975147247,-53.93153381,115.5704651,4.083750248
1263,3.895752192,-1.334839344,6.973769188,-43.18058777,141.3261871,13.57839108
1264,3.859256268,-0.943196177,5.736369133,-11.8967371,161.3293457,18.74144173
1265,5.083099365,-1.143868923,7.833127499,7.206593513,157.9112396,20.96061707
1266,5.437309265,-0.642851114,9.015652657,-0.04636278,151.0775452,18.59441185
1267,5.35442543,-0.724919498,8.683707237,0.832131565,154.7297516,16.18429756
1268,6.015279293,-0.681603432,9.151400566,2.074595451,155.494751,13.25177288
1269,6.381426811,-0.064746723,9.758132935,-11.82919121,157.9173737,15.57036877
1270,6.078007221,0.035545796,10.45858765,-26.94836807,153.5579071,20.72013092
1271,6.184652328,-0.126691863,10.432827,-20.20389366,172.009491,22.87931633
1272,9.780742645,-0.646417677,14.48677254,-66.4413147,128.3700867,23.62688446
1273,9.563965797,-0.470226884,12.36004639,-64.67732239,117.3393173,14.13095951
1274,9.063549995,-1.242671013,10.73470688,-36.28243637,101.5702362,7.160819054
1275,9.062800407,-2.005889177,9.30552578,-1.412678361,98.30342865,6.594976902
1276,8.515067101,-2.289993525,7.605959415,30.31352806,108.6740723,4.956415176
1277,7.120400906,-2.130742311,6.340127945,38.76759338,107.1118317,7.549247742
1278,5.59753418,-1.194313169,5.12932682,46.8871994,113.3239288,2.981943607
1279,3.649213791,-0.137507468,6.309015751,36.33109665,82.47758484,4.292804718
1280,2.47852397,-1.264708281,0.757572114,3.550084114,66.27037811,-4.216812134
1281,-1.602612257,-0.207654968,1.964305758,45.69943619,56.45729065,-7.443151951
1282,-5.033905029,-0.833271503,6.420114517,28.59230995,41.61473083,-4.435813427
1283,-9.831018448,0.3737818,8.064501762,-27.59731865,2.162448883,11.78615761
1284,-10.87058926,1.346935868,6.277882099,-58.74821472,-4.958565712,10.86895657
1285,-4.997897625,0.162505984,18.01290512,-110.3157272,-19.08034325,14.25325298
1286,-0.049091429,-4.256021023,15.57094193,-120.7386627,-3.29832983,-1.651809692
1287,4.646591187,-3.037997723,11.98381138,-65.89691925,8.812826157,-13.13955307
1288,2.655162334,-0.57568413,10.59871769,-1.641281009,-0.137572214,-7.136486053
1289,1.327479362,-1.100070715,10.94204903,3.576476097,-11.91968441,4.093648434
1290,1.192674041,-2.521399021,11.07280254,-22.61519241,-21.60689354,10.49481106
1291,0.08501181,-3.872260809,9.489221573,-2.376284838,-30.57795906,11.4439249
1292,-0.092687726,-4.91457653,10.23742867,2.011698008,-28.44145012,6.504525185
1293,0.070296198,-4.553874969,9.757721901,25.62234116,-15.62848186,5.18642807
1294,-0.751661301,-2.244838953,10.36300945,53.92100525,-2.193122864,-3.012417316
1295,-1.137601495,-0.241284847,10.508708,64.90323639,9.234357834,-2.956902981
1296,-0.673521161,0.216993392,10.58125591,49.26250458,15.17354012,3.516656876
1297,-0.676406682,0.209609836,10.39484406,30.24910545,4.450279236,7.047646999
1298,-0.402667373,0.421536058,10.48324585,33.88923264,-15.37575626,-0.926153302
1299,0.38191092,-0.375701785,11.41040897,35.116745,-20.3194313,-12.55896568
1300,0.320585489,-2.028129101,12.00258827,20.20801735,-20.69020844,-10.28040695
1301,-0.035505418,-3.321938038,11.77655029,27.25065422,-35.62434006,-3.027429581
1302,0.49750191,-2.669099092,11.28907681,49.0818634,-33.47675323,0.023512755
1303,0.584613204,-0.536881983,11.07206631,50.19291306,-15.35570812,6.451499462
1304,0.129131943,0.628839076,11.66547394,39.52687454,-8.938955307,16.42292786
1305,-0.015106443,0.974027157,12.26533699,21.82787132,-8.914272308,18.41539192
1306,0.293638647,1.066428185,11.71307182,8.357020378,-8.172078133,11.05223465
1307,0.48018986,0.645297408,11.12575245,7.442362785,-9.657574654,-0.17902647
1308,0.509455323,-0.142749518,11.15962791,15.10608387,-11.80632401,-3.585930109
1309,0.615701437,-0.883136749,11.43178177,23.6286602,-3.587495089,-2.791181564
1310,0.939445555,-1.000855684,11.79914856,28.21682167,7.967884541,-1.640242219
1311,1.046985507,-0.389341921,11.52452755,28.27833748,11.42977524,-1.643572211
1312,0.923442185,0.37560463,11.60866737,21.33147812,9.016588211,-0.864993632
1313,0.356978089,0.831028819,11.72907257,9.302183151,4.715075016,0.996366262
1314,0.116263464,1.020695448,11.58603668,0.277251065,1.142678618,2.647360563
1315,0.210157663,0.910387397,11.31921959,-4.093575954,-0.522230208,2.07167697
1316,0.481601685,0.681610823,11.12225246,-8.991327286,-1.910349131,1.56087029
1317,0.458955407,0.139826536,11.1486721,-11.0591526,-3.741562366,2.8559196
1318,0.217235863,-0.154457226,11.48366928,-17.3837986,-9.610051155,4.155852318
1319,0.304272145,-0.443002164,11.4719305,-20.29351807,-15.3313036,2.607749939
1320,1.106364727,-0.910072267,11.38755035,-17.08558083,-26.16240883,-1.633731008
1321,1.228862405,-0.334944814,11.45135689,-11.5678463,-32.39772034,-5.896055698
1322,1.116230249,0.748602211,11.4918766,-12.14669228,-35.458004,-6.604332447
1323,0.966248989,0.663508236,11.54589939,-22.46019554,-32.84812546,-2.571644783
1324,1.217998385,-0.368113935,10.97355938,-25.38296318,-30.92713165,2.049347639
1325,1.603672147,-1.558031559,11.14093399,-20.88516045,-34.72698212,3.546752453
1326,1.878973246,-1.568672657,11.21747494,-9.053067207,-42.43173599,0.858607531
1327,1.706543684,-0.343024939,10.90468597,0.378602892,-42.34756088,-3.25886488
1328,1.778496981,0.570103705,11.17322159,-2.728462219,-51.06755829,-2.303223848
1329,1.869014621,0.76877743,11.31343937,-13.91480732,-66.44649506,1.598194599
1330,2.558857441,0.634769082,11.58402252,-24.03537369,-86.53523254,3.004512548
1331,3.394351482,-0.251558542,11.63516617,-23.77370453,-105.0030136,0.249343425
1332,3.725209713,-0.839205086,10.9587431,-7.105837345,-113.3668289,-2.717413425
1333,3.458823204,-1.630256057,11.10985851,7.804785728,-123.9170914,0.952261329
1334,3.885564804,-1.54470849,9.990288734,13.28860664,-136.8546143,4.394695759
1335,4.320510387,-1.327404261,8.800925255,17.21793365,-145.3754272,-1.624492764
1336,5.272286415,-0.445777595,8.761322975,30.06990051,-160.805954,-2.127386808
1337,6.008233547,-0.340544432,9.071242332,36.88386154,-152.2609863,0.746079266
1338,6.013710022,-0.523901165,10.03183937,33.26186752,-140.0095978,2.403190851
1339,5.182721138,-0.3439188,10.17279625,31.53486443,-144.5421753,3.446205139
1340,5.030170918,-0.73952812,9.496836662,30.64723587,-152.2782593,6.863935947
1341,5.0634799,-0.51481998,8.02159977,28.60527992,-143.2061462,5.203745365
1342,4.859519482,0.166773498,6.984030724,30.71161461,-118.9565582,4.544747829
1343,4.384652138,0.322863102,6.459807873,23.20567131,-95.22945404,6.705523968
1344,4.120558262,0.03033524,5.909566879,12.33018398,-76.51187134,5.544402599
1345,4.244210243,-0.072211109,6.380244255,6.813663483,-60.70912552,4.086297512
1346,4.300065517,-0.196178421,7.342880726,-5.343841076,-49.29674911,2.778239965
1347,3.962534904,0.12330617,7.512423992,-11.0501461,-37.54497147,0.28640914
1348,3.642848015,0.955409229,8.51985836,-13.03796864,-32.11497498,0.823791027
1349,4.301428795,0.88629812,8.785419464,-22.33535385,-35.98182297,8.538208961
1350,3.957766533,0.424485505,9.065153122,-29.99221802,-41.79938889,8.800536156
1351,3.389765978,-0.49177146,8.992978096,-23.10233307,-37.04733658,0.480196446
1352,3.541374683,-0.909816206,8.559371948,-4.268336296,-24.48187065,-13.21194553
1353,3.743833303,-0.553508639,8.112542152,2.168507099,4.034406662,-12.72001839
1354,4.089473724,-0.063642696,7.429924965,9.600204468,29.44991112,-7.75998354
1355,5.233674049,0.5895859,7.831942558,-1.371172905,44.70558929,-6.432483673
1356,6.175283909,0.974174201,7.881899834,-33.80051041,38.10647583,-7.104439735
1357,7.169531345,1.723829865,7.711191654,-34.84223938,32.48766708,-8.975557327
1358,6.399428368,0.902612329,6.871408463,-51.01033401,79.58550262,-5.280659676
1359,5.215088844,-1.416998863,4.980873108,-72.9644928,105.6573792,8.039060593
1360,4.501146793,-3.334678411,5.085594177,-77.4176178,109.6073074,16.18318939
1361,3.278779745,-4.294215679,6.635213375,-46.27415085,127.0098724,19.24811172
1362,3.159638166,-3.598634958,7.224372387,-0.633812249,141.0259552,19.18421936
1363,3.927065849,-1.803001046,7.705944538,40.4220047,147.2491608,12.0500555
1364,4.523519993,-0.478946447,8.768154144,40.7400856,153.6583252,7.580749512
1365,4.907317162,0.724337399,9.29578495,23.22613716,162.6730804,9.316156387
1366,5.582023144,0.621767819,9.832824707,-1.304923892,154.3025055,14.37419796
1367,5.629768848,-0.229707599,9.543067932,-22.63731384,149.5548096,16.23893547
1368,5.890142441,-1.28215313,9.804883003,-38.40888596,141.2732239,14.08846188
1369,5.050971985,-1.39902997,9.100664139,-16.36582947,137.6177216,15.05739975
1370,6.822985649,-2.056778193,11.55274105,-24.7471447,141.5735474,25.05043983
1371,7.453519821,-2.362738371,12.94435978,-47.69805527,143.1356659,24.39576149
1372,7.45649004,-2.700425386,12.66499233,-24.20011711,138.1224365,9.083098412
1373,7.450176239,-0.805361092,10.97773933,4.584980965,131.8195953,-5.822706699
1374,7.206458569,-0.382894278,9.467082024,16.72377014,135.0843048,0.271518767
1375,7.176981449,-1.460063696,9.213404655,39.71575546,134.9138031,11.54042435
1376,7.116130352,-2.70630002,8.414412498,69.3319397,105.7873764,14.80660534
1377,6.365400314,-1.692372322,7.269626617,97.8647995,102.2345352,4.199197292
1378,5.318731785,-0.867414892,5.650509834,116.2264633,106.5049286,3.770282745
1379,3.403055191,-1.649855614,5.539189339,79.12677765,104.1762238,4.450930595
1380,0.518502831,0.291632175,-1.060205221,32.8158989,56.69389343,-14.30042267
1381,-2.475624561,1.837775588,4.238461018,37.34283066,51.90660095,-14.71677494
1382,-5.911468506,1.429933071,6.50331974,3.854729891,19.97893333,-3.668275595
1383,-9.984168053,1.854174972,6.505049229,-2.202372074,6.789831161,-0.738734305
1384,-8.906064987,2.83741498,10.37234783,-22.45401955,-21.41693306,5.434457302
1385,-4.586173058,0.025749944,11.51542377,-64.53720856,-32.717659,-2.991471052
1386,-1.292523026,-3.35016942,17.61462021,-66.83097076,-8.072850227,-23.3038311
1387,1.103785038,1.865277171,10.30533028,-25.14078522,-6.719158649,-30.32588959
1388,2.311661005,2.53481698,10.82883167,18.33572769,-21.03660965,-26.2682991
1389,0.583317876,-0.086535186,10.81945229,-2.454740286,-27.66773033,3.046183825
1390,0.437222302,-1.240046144,11.37443447,-17.84535217,-35.2904129,8.766437531
1391,-0.517484009,-1.019029975,11.04792404,-34.45134354,-53.20019531,-11.75694561
1392,-2.168678045,-1.527587652,10.59285069,-27.98752022,-49.61439896,-17.8273983
1393,-1.017882586,-4.13835144,10.3188858,7.813035488,-35.22752762,-1.584159017
1394,-0.922471285,-2.934513092,10.64088821,29.64721107,-22.62447357,4.505904198
1395,-2.070014954,-0.627956927,11.18566608,49.09843826,-27.88690758,4.61013937
1396,-0.740728617,-0.825841129,10.82349491,63.2143631,-29.22472763,-0.346552163
1397,-0.235375345,-0.078877114,10.37856865,76.04407501,-30.71861267,-14.22428417
1398,0.264220774,1.848849654,11.04122639,71.56939697,-43.21679688,-17.22536469
1399,1.18561089,2.099118233,11.99051571,55.32328796,-51.16121292,-6.160451412
1400,1.028778315,1.106133223,12.47855282,35.80998611,-38.66427231,1.676809311
1401,0.17319794,0.322114229,12.13262367,24.46742821,-31.94870186,2.044532776
1402,-0.166553408,0.103961654,11.54259586,21.62188339,-36.87472153,-1.195077181
1403,0.161143661,0.620251894,11.20913887,19.66702652,-26.8573246,-1.747881651
1404,0.40901491,0.944938898,11.54081249,34.09644699,-13.71734333,-0.331903726
1405,0.651041567,0.990116835,12.12710571,48.10172272,-4.219125748,-7.626233101
1406,0.972726941,0.878624022,12.45849705,53.73747635,-6.019104958,-18.58603287
1407,1.216457248,1.053858042,12.04179096,60.45717239,-3.924650192,-16.61458778
1408,0.461297452,1.486070275,11.54552555,37.49993515,-1.537531734,-6.769361496
1409,-0.156786397,1.654552341,10.93855,15.47971249,-21.37940025,0.366236895
1410,0.258810639,1.814225197,10.98930931,8.427276611,-25.64959908,0.278269857
1411,1.104447842,2.046090126,10.88146114,8.666002274,-16.19584465,-2.442346334
1412,1.017515421,2.183793068,10.80143738,13.03547668,-5.984366417,0.169056728
1413,0.681128204,2.343341351,10.86126041,9.319544792,-4.857252598,5.444327831
1414,0.573302269,2.287648678,10.95740509,-1.335158825,-7.863647461,10.00684929
1415,0.603161097,1.891343594,11.08809471,-13.4623909,-13.42362499,11.69893456
1416,0.922264516,1.341674209,11.26438999,-21.0021286,-17.74199295,12.57340336
1417,1.159269094,1.006707311,11.68828964,-25.19928169,-20.97018623,12.0211277
1418,1.352384925,1.092731237,11.64994335,-23.46560097,-23.8989048,8.767506599
1419,1.279359221,1.49771142,11.52132225,-15.26148224,-22.47174644,3.185952902
1420,1.209864497,2.160181761,11.94547176,-14.97780609,-27.01796722,1.962739825
1421,1.251432776,2.625307322,11.88940907,-24.0456543,-36.68988419,4.670046806
1422,1.621367216,2.452739239,10.85409927,-31.01900482,-35.89845657,7.784799576
1423,1.870293498,1.338024974,10.2361021,-34.35651016,-31.44791603,10.57489681
1424,1.935982227,0.254792631,10.27491665,-36.47275543,-35.83407211,11.42872047
1425,2.0702672,0.171002418,10.20641804,-38.31321716,-35.80051804,9.179637909
1426,2.32757926,0.341005206,10.42127419,-39.81930161,-31.03931427,6.422436237
1427,2.451757193,0.237841561,11.06097984,-41.15596771,-33.00303268,6.105660915
1428,2.876352787,0.445443541,11.2439642,-42.47256088,-39.60580063,6.538873672
1429,3.136182785,0.623807073,11.04794502,-34.26981735,-48.04092407,9.389023781
1430,2.857150078,0.737965286,10.82524872,-21.48755074,-68.80184174,10.48153496
1431,3.175373316,0.144077629,10.6479187,-13.90558815,-108.9202423,7.178900242
1432,3.092234373,-0.599035144,9.35073185,7.090428829,-140.4099884,3.581026793
1433,3.868476868,-1.205373526,8.357829094,27.11262321,-141.2871552,-2.984891653
1434,4.943771362,-1.604802132,8.455738068,25.32622719,-128.2470856,-3.53076911
1435,5.587695599,-0.63469249,8.350484848,26.84529877,-124.4159241,1.425242305
1436,5.618184566,0.506428063,8.175431252,30.39443398,-124.9060211,9.338321686
1437,5.456786156,1.16369319,8.652900696,29.36331558,-129.28862,13.41080379
1438,5.546859741,1.368784189,8.939254761,18.24068832,-140.6459656,15.12858582
1439,5.361804485,1.113614321,8.964327812,1.464506507,-143.1130981,15.0107584
1440,5.263324261,0.529428065,9.310071945,-4.711281776,-144.2156677,17.28554916
1441,5.172218323,0.195999354,9.584588051,-10.50464725,-131.9012146,19.04736137
1442,4.91579628,0.277996272,9.228438377,-22.23612595,-108.8289566,20.33609581
1443,4.932422638,0.095512211,7.999145031,-34.62120056,-72.98228455,20.08264732
1444,4.65724659,0.360964417,7.924957275,-48.55215836,-49.56232071,18.02968979
1445,4.231955528,0.719536662,7.866039753,-53.37550735,-46.02853775,16.57253647
1446,4.204873562,0.800038338,7.495173931,-50.00654602,-45.25434875,17.25649643
1447,3.730049133,0.157530457,8.069470406,-46.20180511,-50.42472076,14.71177197
1448,2.948721409,-0.502464652,8.393993378,-37.95732117,-55.96082687,12.07212543
1449,2.869946718,-0.810343206,7.815598011,-9.613981247,-33.81890869,8.344758034
1450,3.815596581,-1.062713385,8.207014084,11.09800529,-16.86763954,1.925110817
1451,4.110215187,-0.72878927,8.303707123,17.2027626,-9.72515583,-0.664215088
1452,4.219864368,-0.208365947,7.523061752,26.3245163,9.98413372,-3.275450468
1453,4.149861813,-0.192141056,7.946525097,14.07299614,32.84153366,-6.432032108
1454,4.456164837,-0.043275081,8.614831924,-21.58135414,45.71397018,-3.182214499
1455,5.595824718,0.540985584,8.639588356,-41.55313873,41.82657623,0.473238885
1456,6.267014503,0.623694062,8.41644001,-25.87874794,46.17276001,6.465939522
1457,5.654054642,0.069570839,8.517106056,-4.842488289,65.02059174,7.858794212
1458,4.789728165,-0.761153519,7.619914532,2.799645662,65.23025513,11.78673077
1459,4.338932991,-1.630757213,3.513584137,-20.34887123,98.12835693,13.17966175
1460,4.313171864,-3.240476608,5.026362896,-51.35547638,114.9179993,19.02135277
1461,4.107352734,-3.041610718,5.791606903,-33.94154358,131.5188599,25.28342628
1462,4.240782738,-1.922985435,5.955338955,-5.460010529,149.7267609,27.15312004
1463,4.312605381,-1.462581396,8.460766792,-4.415492535,150.1000824,26.48012543
1464,4.286903858,-1.394574761,9.298075676,-11.18919754,149.0651855,22.95015907
1465,4.803790569,-1.534794688,9.814851761,-20.25226402,145.5670471,25.00642395
1466,5.446533203,-1.042524099,8.95727253,-11.9538269,147.2892914,34.26079178
1467,5.889434814,-1.321345091,9.109451294,-9.344737053,149.0797729,45.27919388
1468,6.094403744,-1.558835149,10.26295471,-27.2483387,148.2260742,50.0252533
1469,6.986274719,-2.245745659,11.60042858,-42.05424118,140.0804138,42.7673378
1470,7.683889389,-3.216146231,13.63213825,-62.90557098,141.2528992,27.53909683
1471,7.038234234,-3.341534615,13.718894,-52.25228119,131.6983643,13.59779739
1472,6.251476765,-2.883705139,13.01386833,-30.32959557,117.3182526,15.22590351
1473,6.37212038,-1.689294219,12.84418297,-24.6093502,108.5863037,20.20251846
1474,6.323862553,-1.644651532,11.46437836,-8.777579308,90.50873566,18.85115051
1475,6.832897186,-2.282591581,8.598337173,23.52806854,79.62018585,10.19012165
1476,7.97266674,-2.990457773,6.24792099,62.50041199,72.46431732,14.99656296
1477,7.577908039,-2.561290741,4.279126167,117.5745773,82.62491608,14.409729
1478,5.460724831,-1.346560955,3.668705702,168.5356445,48.47108078,7.568017006
1479,2.843421221,-1.728830695,1.610419154,133.1954956,45.16125488,-8.447096825
1480,-0.577439666,0.869787931,2.63273406,106.7546234,57.13729095,-16.85361671
1481,-3.067808867,0.68888396,4.992707729,18.89147377,90.03469849,-18.27389908
1482,-7.152676105,-0.785764873,8.232330322,-51.41534805,78.24216461,-13.39027309
1483,-9.251799583,0.919718146,9.952672958,-42.95198822,20.62314224,-2.394262552
1484,-9.678529739,1.070390224,6.585851669,-19.5836525,-19.04203224,-4.596933365
1485,-4.125322342,-2.213476419,17.70466614,-57.53739166,-23.96928215,-15.28204441
1486,1.000725865,-2.010492802,12.28771782,-31.65975761,-29.32333755,-13.71743488
1487,2.486087084,0.984701991,10.73178864,32.61580658,-16.67514801,-25.84767342
1488,2.562354803,0.587784708,9.873139381,18.97741699,-14.88776875,-17.2217083
1489,0.594671965,-1.569633126,10.49851322,15.35481548,-14.43121338,4.198658466
1490,0.982153475,-2.654544592,11.27362823,18.6540451,-33.46072769,-5.63759613
1491,-0.37917912,-2.369366407,10.8792696,-3.13060689,-44.92318726,-15.07885838
1492,-1.285926938,-1.722187996,9.446188927,2.38222909,-23.24341202,-6.657810688
1493,-1.978553414,-1.900454879,10.05422783,32.48983002,2.177696228,6.463499069
1494,-2.215099335,-0.194537371,10.57925606,40.07569504,14.11763954,9.406562805
1495,-0.651286423,0.317790091,10.9372921,39.72743988,15.76477718,14.89557934
1496,0.411639661,0.258329481,10.72875977,36.83371353,10.79576683,8.545577049
1497,-0.332464933,1.161486268,10.71759892,38.92146301,-4.379309654,-9.112717628
1498,-0.745693684,1.102040172,11.62170029,24.63278961,-28.69551659,-11.95642567
1499,-0.424494058,0.411931664,11.98965836,8.463256836,-40.46091843,-4.389627457
1500,-0.410890639,-0.335626245,11.67548752,19.15820694,-43.86899567,3.0722363
1501,-0.40966484,-0.282010198,11.43764019,21.97758484,-41.27167511,8.114602089
1502,-0.266603649,0.299827814,11.58643246,22.13544655,-32.90577698,7.338765144
1503,0.083899722,0.446927249,11.24009514,35.29216385,-19.32422829,-2.056788445
1504,0.425280809,0.663362265,11.35854626,40.75663757,-7.263197422,-7.67026329
1505,0.484119713,1.425650001,11.73139191,29.85043716,-6.998534679,-5.945861816
1506,0.514151812,1.968910575,11.99896431,23.50712013,-19.56521797,-7.321139812
1507,0.158705607,1.796182871,11.66544247,19.30490112,-27.99435234,-13.70780182
1508,0.135002986,0.980198145,11.5894289,21.94803047,-18.69807816,-22.7490387
1509,0.58862412,0.244723439,11.91984463,30.17157173,2.899396896,-21.71008682
1510,0.666564345,0.126312554,11.84891033,24.42566872,14.203722,-11.01894569
1511,0.487153113,0.738015234,11.19672298,8.420875549,5.186439037,-4.864288807
1512,0.362999588,1.43715024,11.03034973,-5.948564053,-6.560144901,-5.864644051
1513,0.141782731,1.351534128,11.17643356,-9.741872787,-7.753416538,-6.99621582
1514,-0.061136283,0.705229819,11.45738029,-3.486862421,-1.203003168,-6.052794456
1515,0.087654822,0.183193237,11.59304523,0.85600841,2.996551275,-3.043364763
1516,0.446526021,0.260390341,11.21045589,5.290802956,4.794492722,0.121340178
1517,0.586844921,0.439759523,10.88527107,10.83609295,4.697506428,1.620279431
1518,0.383456856,0.575209856,10.85629082,14.78899384,4.604327679,0.603595734
1519,0.143837884,1.041003704,11.19125557,1.835041165,3.849377155,-2.365383863
1520,0.247252733,1.596210361,11.19497681,-22.44386864,-0.372095585,-3.082615852
1521,0.260846525,1.749818802,11.11065102,-32.06433487,-10.69873714,-1.698525906
1522,0.145426869,1.353826165,11.54895115,-31.42026138,-19.35303497,0.099179246
1523,0.313192159,0.886954844,11.78585052,-26.11499405,-30.15506363,4.334108829
1524,0.720479071,0.422317892,11.04082298,-15.63197041,-32.36831665,5.659113407
1525,1.203547716,-0.654690564,11.22101212,-14.46857929,-27.23292923,2.446174622
1526,1.463414788,-0.596055388,10.9986124,-9.334365845,-34.2878952,-0.566433847
1527,0.930130363,0.354278177,10.69773006,-0.836656332,-40.39212036,-2.975508213
1528,0.602319181,1.098365784,11.23918247,-6.292820454,-46.00727081,-6.135057449
1529,0.64682591,1.020394087,11.78015995,-24.72779083,-55.51613617,-7.421865463
1530,1.156232119,0.334560901,11.61190319,-34.62800217,-73.50794983,-3.657707214
1531,1.800342202,-0.402934343,11.94399738,-32.5638237,-100.3825836,1.623172641
1532,1.809772968,-0.840168953,12.37486458,-9.767602921,-122.3088531,5.452843666
1533,2.61198616,-1.423620105,12.49164391,3.880351305,-148.5041809,9.00308609
1534,3.063959122,-1.935034394,9.001008987,4.247566223,-168.0626678,6.638264179
1535,3.956820011,-1.718977094,6.520865917,14.39754581,-151.0050659,-0.543135703
1536,4.204465866,-0.30386132,7.248981476,29.57746887,-128.8287048,-3.791015387
1537,4.718266964,0.536884785,7.863603115,32.76007462,-128.8098755,-1.498385072
1538,5.088102341,1.354203224,7.771153927,46.91433334,-132.3591766,2.4570117
1539,5.604055882,1.604192138,8.447381973,47.48156357,-142.7317505,7.17350626
1540,5.970544815,1.592665076,8.771809578,32.09322357,-147.9459839,14.54997349
1541,5.539400578,1.178904653,9.37565136,22.02383041,-149.0092468,20.89859772
1542,5.10229063,0.881374657,9.305919647,16.08106041,-142.8109436,21.26115417
1543,4.677998066,0.589064419,9.28791523,8.057897568,-128.6655884,18.55251122
1544,4.439561844,0.823142827,8.951716423,-11.7578516,-109.1559219,15.58682823
1545,4.34044838,1.060381293,8.603824615,-33.51541901,-87.79537201,16.0849247
1546,4.0931077,0.928346455,9.347108841,-41.70067215,-86.15446472,17.95956421
1547,3.736050844,0.696474254,9.630747795,-28.83553505,-90.4763031,15.62246513
1548,3.901771307,0.323455602,8.089220047,-14.47287369,-68.20198059,8.193702698
1549,3.906657457,-0.389768273,7.550413609,-8.550374985,-44.32774353,3.021199703
1550,4.315267086,-1.298871279,7.555924892,4.427375793,-37.87089539,-0.561843038
1551,4.492432594,-0.754465878,8.096802711,-3.175042868,-35.70446014,-11.3595314
1552,3.934600592,0.29735896,8.248238564,-23.69655418,-11.92297649,-12.03427792
1553,3.923208475,0.525737405,7.685031414,-33.15317917,2.30800128,-3.264415264
1554,4.076276302,-0.011668326,7.997163773,-30.9037075,18.61812592,1.5790236
1555,4.646358013,-0.055709906,8.567708015,-26.23725891,36.45374298,4.133439064
1556,5.403857708,0.286034703,8.074662209,-4.025331497,52.44776154,-3.219484091
1557,5.566402435,0.656894982,7.414140701,-0.73327589,60.06300354,-15.44151592
1558,4.550283909,0.435238332,6.872838497,-17.49835777,79.25750732,-18.71740723
1559,3.341290474,-0.065915048,6.288721561,-40.55623245,91.08666229,-6.879916668
1560,3.288286686,-1.781632781,5.635085583,-60.11018753,100.0559158,12.07639122
1561,4.215399742,-2.640849113,5.086262703,-54.94707489,119.727562,25.3901577
1562,5.381208897,-2.266826391,5.667656898,-42.45637894,137.7966461,29.1987381
1563,4.571019173,-1.346707225,6.601223469,-32.84713364,154.6973877,22.42890167
1564,3.765075445,-1.040822625,7.786498547,-11.60646057,168.065979,17.71838951
1565,3.927241325,-1.186883569,9.619543076,-19.33120346,163.0143127,14.65388393
1566,5.058819294,-1.011247396,10.32227421,-29.69333267,163.0277252,16.3963604
1567,6.594032764,-1.607177854,10.74645138,-43.71066666,162.6989594,21.23923874
1568,7.57662344,-2.116709709,10.41820526,-50.1019516,161.5431366,23.61701012
1569,7.609824181,-1.53907752,11.24589729,-54.94276047,157.0854645,26.99109459
1570,5.579815865,-0.980088711,11.51459694,-52.15978241,131.249649,26.25090599
1571,4.188848019,-0.429616362,10.15202236,-2.346415043,124.3148651,21.64702034
1572,7.311531067,-2.597131968,14.70309639,-59.81853867,114.3181152,19.26698875
1573,8.192850113,-2.445126057,12.64486504,-77.70005035,106.4756012,15.70631409
1574,8.024060249,-2.151249409,11.32194805,-60.20785904,96.18552399,18.86205292
1575,7.712393761,-3.143797874,9.388528824,-25.85152435,84.56690216,19.86942101
1576,7.574746609,-4.104320526,7.274602413,26.22904205,69.78734589,20.30444527
1577,6.761923313,-3.652246952,6.000786781,89.97325134,68.4389267,19.45111656
1578,5.582080364,-1.983826995,5.111799717,130.7871857,56.36125565,11.97157764
1579,4.557798862,0.10928499,5.246358871,82.93200684,37.17866135,11.22489166
1580,0.88575089,2.258571386,1.049466968,20.6939888,54.93460083,-3.080848455
1581,-1.878364563,1.067126513,3.642422438,8.766877174,86.31430054,4.929442883
1582,-5.004464626,-1.546344042,8.631960869,-32.39009857,80.42241669,5.880589008
1583,-8.185159683,-0.713372171,6.881394863,-25.83987045,13.63476944,12.38175392
1584,-8.638520241,1.183647275,11.50485229,-29.25738144,-2.561368227,8.300776482
1585,-8.567504883,-1.86157155,7.03510952,-45.05904007,-24.68798256,0.906313717
1586,-2.22589469,-7.413188457,19.49486351,-58.49082947,-24.86303329,-0.458493114
1587,0.886798084,-3.77564621,11.44093418,-55.39340973,-22.10723877,-9.532766342
1588,3.594825983,0.681697011,11.42879009,47.40202713,-22.34134293,-24.95819855
1589,3.44588089,0.14677,9.579135895,24.92623711,-19.06879997,-6.924688339
1590,1.278699398,-1.35122931,10.79880047,20.65421677,-38.20845032,27.98238564
1591,-0.075017802,-3.892623663,11.08891392,12.98613834,-47.26493073,20.66068649
1592,-1.141491175,-4.098327637,10.0585947,-4.119812012,-32.18516159,1.526919603
1593,-1.48307693,-4.098386288,10.09869099,12.67245102,-22.23425102,1.313806534
1594,-0.522485316,-3.39972949,10.29286671,35.44321442,8.588506699,-8.235606194
1595,-0.325233549,-1.040868402,10.54205227,50.06057739,20.5445118,-12.0227356
1596,0.023477206,-0.582195103,10.65200043,60.87958908,18.67508698,1.706278205
1597,0.077036925,-0.340923071,10.53905487,58.22774506,15.67039871,1.641237855
1598,-0.506025076,0.877434552,10.31175232,52.17247772,5.387575626,-8.392749786
1599,-0.457880914,0.82057941,11.31720448,35.34477615,-11.82727051,-10.27941036
1600,-0.333038151,-0.446248472,11.68506813,16.64680481,-10.10651016,-5.163533211
1601,-0.646503627,-1.482811928,12.08705425,8.598168373,-9.009450912,-1.840196609
1602,-0.626456201,-1.188560486,11.91575241,8.860726357,-17.70237732,0.312104017
1603,-0.441593587,-0.412144512,11.82061768,9.805593491,-18.97455215,2.583044767
1604,-0.113487765,0.031723104,11.5160923,9.467363358,-10.78204536,-0.035396777
1605,0.331755638,-0.656163692,11.22729301,12.24360085,-5.994386196,-3.772073984
1606,0.069432467,-0.817069352,11.94881535,7.494084358,-15.93416214,-0.381552756
1607,0.071756721,-0.783613205,11.82576084,3.554424763,-26.77423668,1.858372808
1608,0.562036335,-1.266030192,11.27842331,12.66014099,-20.50697136,-1.872606039
1609,0.539086044,-0.96306181,10.9715519,25.82783127,-0.549297631,-5.808301449
1610,0.455228508,-0.019382954,11.0186615,30.51253128,11.53051662,-4.76722002
1611,0.176341265,0.645412385,11.0227375,24.95858765,8.898257256,-1.375488639
1612,-0.012391611,1.091800332,10.64423084,19.9866066,1.12542367,0.900812864
1613,-0.153359547,0.929655015,10.67938995,13.87682247,0.530074418,0.480449766
1614,-0.105883673,0.069798298,10.98001957,6.059855938,-1.159768701,0.733899891
1615,-0.174225569,-0.527355373,10.92424774,1.004216313,-4.463692188,2.256626368
1616,-0.236032233,-0.496919572,11.0727644,1.595946908,-7.032481194,4.103097916
1617,-0.001298783,-0.106906123,11.09625816,0.552574933,-9.737106323,3.44065094
1618,0.404939055,0.19117932,10.75385857,-0.106926687,-13.750103,1.305915594
1619,0.798448801,0.221813902,10.55067635,0.280536056,-14.05792809,1.551272392
1620,0.693316996,0.689105213,10.48230457,-5.922168732,-16.69883919,2.198199749
1621,0.119722225,0.970870733,10.82871628,-15.07310581,-20.23564148,0.564998209
1622,0.279850721,0.41095674,10.59694958,-20.42673302,-23.00878143,2.936396599
1623,0.755163312,0.009714086,10.93281841,-24.9060688,-31.57355309,4.715107441
1624,0.97108084,-0.210992128,10.76207066,-28.73800468,-35.72303772,2.87141633
1625,1.402653813,-0.523140788,10.11363506,-28.82982635,-29.44863129,-0.432114422
1626,1.621631026,-1.295814037,9.52243042,-23.28801918,-25.39212418,-1.28523767
1627,1.609495163,-1.619463325,9.926810265,-19.01484108,-30.52014351,-2.091952324
1628,1.624391079,-1.12230587,10.48157692,-19.60933113,-41.75786591,-1.319140673
1629,1.741193056,-0.889091432,11.19316387,-18.70961189,-57.1534996,-1.73999548
1630,2.38381958,-0.759342194,11.4667511,-6.329937935,-76.29814911,-4.553493977
1631,2.901655436,-0.683344066,11.40428925,10.78918171,-91.51599884,-7.855241776
1632,3.190846443,-0.430908769,11.5823164,26.72905731,-107.9402618,-11.56314373
1633,3.214144707,-0.13679263,11.91192627,37.01364136,-123.4796066,-12.44535732
1634,3.280220032,-0.921347558,12.94914722,48.00600052,-142.8869629,-1.168788195
1635,2.603159189,-0.555398107,13.0098896,59.13087463,-141.6653595,6.708440781
1636,3.897651911,-1.259679794,8.71630764,58.51093292,-188.1445618,6.888576031
1637,5.193515778,-1.023939013,6.669840336,50.01114273,-161.2132111,2.033077717
1638,5.737915993,-0.094985366,7.523764133,38.91663361,-143.5532837,3.823090076
1639,5.780023575,0.458164275,8.41658783,20.76123047,-143.3419342,10.51230335
1640,5.585435867,0.662132263,8.853620529,13.7638607,-140.4176331,13.49375534
1641,5.345632076,0.205699697,8.778450966,10.84992886,-144.4527588,9.268162727
1642,5.285881996,-0.714066505,8.677629471,12.5376606,-140.1052856,9.762126923
1643,4.288224697,-0.44861567,8.012197495,21.74550629,-127.7512054,12.65479851
1644,4.26187849,0.43792206,7.781272411,25.20763016,-112.8684845,17.54187965
1645,4.28192234,0.899004877,8.098258972,12.77093506,-104.0916595,19.99504471
1646,4.234145164,0.656897843,8.243953705,-6.52902174,-95.40556335,17.07858467
1647,4.039462566,0.422712326,8.307771683,-21.91957474,-77.46266174,10.41161823
1648,3.791192055,-0.064046688,8.600495338,-30.23306465,-61.13957977,5.809562683
1649,3.660546303,-0.328452885,8.612596512,-22.17876053,-48.87687683,0.796787202
1650,3.866397858,0.317747474,8.261481285,-9.655781746,-41.91975021,-1.834355116
1651,4.080258369,0.660302341,7.833466053,-8.577407837,-38.89533997,-0.798313856
1652,3.896900892,0.699163616,7.807055473,-10.13012218,-38.11488724,-0.769512117
1653,3.962259054,0.525516868,7.977704525,-6.327414513,-25.12025261,2.616695642
1654,4.853109837,-0.503902912,8.681180954,-5.041835308,-8.512805939,-0.634593189
1655,5.752885342,-1.07062149,8.29193306,-3.287157774,29.48085976,-9.262467384
1656,5.995764732,-0.794745147,8.248783112,0.963306546,73.91255188,-15.33103085
1657,5.604920864,-0.140206099,7.846641541,2.070426226,85.17909241,-19.53822517
1658,5.045922279,1.404767513,7.750722885,-1.95249474,85.35836792,-13.82644558
1659,4.127875805,1.170379877,7.346928596,1.277501225,89.23195648,-0.390335649
1660,3.903048754,0.387333542,6.312982559,-18.38814926,99.15040588,6.86403513
1661,4.514556885,-0.966596365,6.382505894,-38.63122177,100.155098,10.72809505
1662,4.893769741,-1.94714272,5.599649429,-39.40094757,111.5314713,13.8007412
1663,4.478985786,-2.055253267,5.647381306,-10.85607719,136.6687927,11.98845768
1664,4.488121033,-2.230032444,7.739088058,-6.198015213,147.5707397,7.339923859
1665,4.130512714,-1.477256536,8.30416584,-9.119668961,155.9239502,4.467008591
1666,5.292646885,-0.619939506,8.607233047,-4.810352802,152.8280792,4.027929306
1667,6.547078609,-0.041066643,9.4025383,-11.72720528,149.3082123,7.832439899
1668,6.996729851,0.245019451,9.971609116,-26.28977394,152.662796,14.48015118
1669,7.093502045,0.295567274,10.70842361,-39.02065659,153.0757904,22.00469398
1670,6.77826643,-0.11757905,11.73481274,-54.32941055,144.3328552,26.84343147
1671,6.105625629,-1.199192524,12.16592407,-60.5798378,127.8896484,26.60845184
1672,5.753390789,-2.679764032,12.56483841,-44.85848618,109.4693756,18.66052437
1673,6.484826088,-2.285431862,12.96423244,-15.83814716,80.21669769,5.857532501
1674,7.698348045,-0.89042455,12.2374506,12.98467255,72.58648682,-5.456615448
1675,8.656450272,-1.033820391,10.69907761,6.382885933,83.1129837,-4.845849991
1676,8.861988068,-1.216118336,8.147807121,15.37437725,84.186409,-9.053723335
1677,8.914482117,-2.385401726,7.118609905,38.96458435,87.97945404,-9.506663322
1678,6.092626572,-1.744410157,6.887430668,53.74510193,79.5421524,-3.238363743
1679,4.984507561,-2.26759553,7.442705154,61.11983109,71.72027588,-5.358370781
1680,3.007265329,-1.519271493,5.616678238,41.92973328,72.84437561,-2.084336519
1681,2.58064723,0.394426614,-1.713721037,24.77966881,33.32025146,-7.472692966
1682,-2.459310055,0.517493188,4.160079479,32.13245773,71.45141602,-20.87359238
1683,-5.677636623,1.134634972,10.24658585,-31.8011837,30.93562698,-7.543774128
1684,-8.75440979,2.891337156,5.745104313,-42.46072006,6.695243359,9.018240929
1685,-6.797261238,0.523468852,12.29351234,-49.42232513,6.864503384,19.83981323
1686,-1.890588641,-4.819732666,17.64715385,-102.3880844,3.284836531,12.41154766
1687,2.161633015,-5.381100178,15.12962627,-73.38246918,19.56261063,-16.32889175
1688,2.72228241,0.302083611,9.874250412,44.47729492,23.73930168,-18.12447166
1689,1.28365624,0.975428879,10.54386902,62.1747551,-1.354445577,-20.15972328
1690,-0.561021209,0.304522067,10.85491753,29.7876873,-2.08141017,-7.581858635
1691,-0.149161175,-1.056317568,10.36065197,5.80779314,-21.87281799,1.381782055
1692,0.127036348,-2.554459095,9.96085453,15.86525249,-27.65929413,0.204543725
1693,0.195882097,-3.215472698,10.0614109,16.90070915,-15.65041542,6.493415356
1694,0.134195715,-2.243789911,10.18445778,41.18267059,11.41100883,9.349414825
1695,-1.187340021,-0.479992181,10.80583668,48.42671585,23.94853973,7.239818573
1696,-1.918888927,0.538882673,10.8435154,41.33904648,28.96969795,2.548069954
1697,-1.109853864,0.415257394,10.86001682,24.95031166,15.46552753,3.135740519
1698,-0.529630005,1.025079012,10.56425095,10.61328697,6.688164234,-3.571295261
1699,0.022221113,0.323739201,10.75455666,-1.719637156,-3.789438486,-7.580938816
1700,0.047461588,-1.245170593,11.13719273,-3.148992062,-2.388269186,-7.424917698
1701,-0.057892967,-1.915415406,11.25858307,8.710964203,-1.937511683,-3.841803551
1702,-0.204625651,-1.32564044,11.32625294,16.02681541,-4.630172253,0.511422038
1703,-0.953235507,-0.257579267,11.62944317,13.83113575,0.867669225,-2.813473701
1704,-1.109984279,0.309973836,11.76932716,16.74015236,9.763371468,-6.642477989
1705,-0.574330389,-0.04385712,11.63492012,23.6769371,10.4789114,-6.252798557
1706,-0.445275545,-0.122773968,11.75989056,29.64839745,4.922674656,-5.79582119
1707,-0.463989317,0.138325274,11.33667374,43.20111465,-2.438415766,-6.699053288
1708,-0.363991827,0.406463742,11.19774246,45.58699036,-0.960105717,-9.688621521
1709,0.081747897,0.587185323,11.08407688,40.8601265,-1.216988444,-8.920324326
1710,0.087019913,0.721580267,10.76442528,30.4973011,1.112004757,-5.715064526
1711,-0.381555825,1.398462534,10.24755001,17.29115105,10.27397823,0.253495604
1712,-0.746388137,2.068727493,9.84040451,6.51246357,14.5259943,6.67194128
1713,-1.028043389,2.279780388,10.34069824,-6.922707081,8.724223137,6.710909843
1714,-0.938078523,2.005867958,10.81401539,-24.92519569,0.418064237,4.174917698
1715,-0.371660799,1.100990176,10.72961617,-33.86071777,0.382046998,2.200082302
1716,-0.097651489,0.321095705,10.50296307,-32.05680847,-2.179802418,0.345689446
1717,-0.185067803,0.022111859,10.18543339,-23.34115791,-6.676130772,-4.436295033
1718,-0.508411527,-0.687295794,10.92983532,-6.60324049,-11.16473866,-5.441473484
1719,-0.867305577,-0.374064982,11.91701508,5.725609779,-24.12110519,-2.402681589
1720,-0.456825882,0.697082341,12.31947708,2.666915894,-37.38888168,-1.193698525
1721,0.177914813,1.050514221,11.40148449,-10.49793339,-32.36380005,-3.020313025
1722,0.769987166,-0.088361233,10.95403576,-25.06564713,-30.29801559,4.033606052
1723,0.729344726,-0.655252635,10.66963863,-35.04557419,-34.53329086,12.51889038
1724,0.473292589,-0.627503574,10.64393902,-37.80590439,-35.48077393,9.310190201
1725,0.529902875,-0.460734844,10.91804314,-33.70874405,-36.83605576,0.297122747
1726,0.493972719,-0.441924095,11.02924919,-30.319664,-38.88208008,-5.330548286
1727,0.613273621,-0.433277726,10.71058941,-21.35125351,-46.7154274,-5.882536888
1728,0.935794413,-0.326350391,10.57118225,-8.688700676,-57.82497025,-1.958780408
1729,1.152300239,-0.623282671,11.116436,-0.776328623,-71.98539734,1.892223716
1730,1.466486931,-0.603685737,11.32866383,3.715703249,-90.63290405,1.23791039
1731,1.894480824,-0.025788112,11.63444042,4.803050518,-117.4900208,-0.408766598
1732,2.419372082,0.621247768,12.56380558,16.43063927,-142.5618896,-5.304896832
1733,2.795530558,1.031385303,11.98907852,45.97075653,-145.3937836,-1.493848801
1734,3.128421545,0.52197361,10.75691128,57.76623154,-145.250351,8.351172447
1735,3.396997929,-0.540030181,11.01827812,49.42356873,-158.8309326,15.40435791
1736,3.939549923,-0.866794467,10.31780338,39.02617645,-173.9425507,23.063694
1737,4.954879284,0.278230131,8.838480949,42.9321785,-181.1077118,23.20697784
1738,5.674322128,0.297554046,8.617300034,43.93868256,-169.6634216,19.01992226
1739,6.438588619,0.268986076,8.683628082,34.14078903,-157.3825989,11.2644701
1740,5.793809414,0.838372171,8.110219002,17.57009506,-136.3052368,8.116891861
1741,4.891849995,0.845670462,8.202985764,6.543523312,-130.197525,11.25934887
1742,4.412570953,0.707998455,8.402561188,-0.059757665,-123.4748077,13.15762424
1743,4.306102276,0.51273334,8.431028366,-5.509210587,-105.716156,11.46311378
1744,4.259581089,0.62613076,8.296169281,-10.71747017,-80.27698517,17.02024841
1745,4.296185017,0.013341989,8.894727707,-28.24542427,-67.41309357,22.61276054
1746,3.573204041,-0.945363462,9.805069923,-42.88896942,-72.01596832,23.75593185
1747,2.284441948,-0.446246624,9.44878006,-51.77323914,-62.52427673,20.43631935
1748,1.904267311,1.403583765,8.387633324,-23.99628639,-42.23728561,11.62051964
1749,2.99580884,2.053693533,8.499860764,-3.858168602,-28.13104057,10.13087177
1750,3.942473173,0.833926439,8.186775208,-3.646041632,-24.32358742,13.66921997
1751,3.776153088,-0.531931102,7.95745945,-5.755401611,-21.64096642,5.220383644
1752,3.581908941,-0.921040058,8.090128899,-10.05151272,-13.82786655,-9.966914177
1753,4.016186237,-0.834161699,7.857601166,-12.90287876,18.14993095,-15.59860992
1754,4.799060345,-1.000695825,8.106610298,-22.81201744,40.15828705,-11.10599804
1755,5.600613594,-0.619344354,7.655284405,-27.87576294,40.2052002,-4.549782753
1756,6.317344189,0.552153289,7.585211277,-5.605013847,40.31370926,-2.014117479
1757,5.226478577,0.974254489,8.149992943,-3.330504894,63.32086182,-4.520730972
1758,3.726760149,0.081270196,7.55230093,-7.507350445,78.60790253,-2.074892282
1759,3.449189186,-1.485063195,5.065934181,-18.62026978,92.08811188,6.135502338
1760,4.212304115,-2.567444086,5.649468899,-45.91352081,103.8728333,16.40346146
1761,4.395510197,-2.092092514,6.316692352,-34.98540497,124.4895401,23.07745934
1762,4.043000221,-2.052508593,5.610733509,-7.61750412,143.4112244,23.80939102
1763,4.070730686,-2.611366034,8.096808434,5.307612419,153.9481201,17.83130074
1764,4.837079525,-2.605440855,9.249083519,11.69842148,152.4842377,8.935465813
1765,5.797707558,-2.156248569,8.983680725,31.46570587,150.762146,8.805699348
1766,6.136160374,-1.448814511,9.507081985,51.61168289,149.6632233,14.21085644
1767,6.101460457,-0.29168424,10.11137104,54.35135651,144.5631104,18.46807289
1768,6.767255306,1.107125878,10.77814484,38.03403473,141.164444,26.04231262
1769,7.545995712,1.462008357,11.31069756,18.97735023,143.8348389,40.17100143
1770,7.002001286,-0.605482817,12.12021637,-26.19771004,163.2694092,39.75861359
1771,6.031904221,-1.821873426,12.99074268,-51.75017929,153.0606842,21.49341202
1772,7.104798317,-0.738714516,13.92718029,-53.5133667,117.0740509,7.664293766
1773,7.416136742,0.890906632,15.08210373,-74.15748596,108.9741364,2.431555986
1774,7.329688549,0.189908952,12.33363533,-65.57117462,109.7178116,10.55405426
1775,7.456467152,-2.497068882,7.129701614,7.323788166,88.76637268,25.19096565
1776,6.71443224,-3.698844433,4.557763577,79.74030304,80.12175751,33.01942825
1777,5.342523098,-2.433459759,4.430666447,143.0064545,93.97564697,21.14033508
1778,4.015892029,-2.15299964,4.942483425,129.0904541,82.62962341,11.88795185
1779,1.463013768,-0.493771315,-0.789814591,99.29881287,58.8025322,-25.53047943
1780,-1.171156645,3.166995764,2.664493561,92.24583435,49.57527542,-43.0291481
1781,-3.331651688,3.339092493,6.439824581,16.62933922,78.86501312,-34.35462952
1782,-7.438028812,1.615879893,5.835446835,-47.20792007,77.35411072,-10.88037109
1783,-10.59378815,2.922893286,12.85430527,-56.65847778,3.843985796,10.05386925
1784,-8.066880226,0.827670515,9.636219978,-82.87606049,-28.62071419,3.53231144
1785,-2.770995617,-3.443399429,17.35386848,-67.44216919,-22.93588448,-24.39473724
1786,0.134973913,0.709945977,9.647768974,-17.29696465,-15.51905918,-37.79085159
1787,1.641203761,2.206277132,10.19546223,38.29798126,-21.28617287,-29.10453987
1788,0.84303683,0.988132834,10.25721169,3.572089672,-34.16222382,-1.806579947
1789,1.150866032,0.664012969,10.35374451,-36.08145523,-35.73005676,-5.269797325
1790,0.760703444,0.080749996,10.58686924,-63.57152176,-44.46133041,-10.31178093
1791,-1.508589745,-2.698357821,10.75399017,-62.74552155,-37.94913101,0.693963647
1792,-1.420501232,-5.02459383,9.797201157,-31.29139137,-30.3692131,16.99493599
1793,-1.151504517,-3.474472523,10.40777397,9.345535278,-14.90958786,6.407485962
1794,-1.842005968,-0.1115392,11.10785484,32.90993118,-9.539206505,-2.316383362
1795,-1.043262959,-0.352451563,11.45961571,46.21099854,-5.910636425,-1.135124922
1796,-0.429008067,-0.135036871,11.0353384,41.84924698,-3.603992939,-7.929916382
1797,-0.388389885,0.459684044,11.0796833,27.37559891,-10.09112358,-10.21847153
1798,0.351527393,0.816170812,11.39224148,3.132786512,-24.77763748,-6.043836594
1799,0.294584334,0.051988795,11.70741367,-14.87709141,-31.71040726,0.664229751
1800,-0.333650231,-0.941410422,11.6443491,-18.74127769,-35.98450851,7.581763744
1801,-0.566918969,-0.784391582,11.77511978,-6.1997118,-31.69813728,6.72821331
1802,-0.678945601,-0.509703875,11.74953365,2.763596296,-23.0448513,0.994626224
1803,-0.511427522,-0.720538616,11.9283886,7.415869236,-14.10702133,1.18648386
1804,-0.037173361,-0.892115831,11.87129211,8.2528162,-14.95496941,3.559413195
1805,0.688139677,-0.846491277,11.88654327,5.335146427,-20.21844673,2.447463751
1806,0.773615718,-0.194022655,10.85810852,3.258125544,-19.60722542,-0.422674149
1807,0.263973594,0.135703295,10.53580379,1.725215554,-16.12365913,-3.952209949
1808,0.073197298,0.102110587,10.59817982,3.292284727,-15.99739075,-4.042795181
1809,0.197657794,-0.149677366,10.65132999,7.540065289,-13.8057518,-3.558612347
1810,0.348614037,-0.038300451,10.39482212,12.89245987,-5.331961155,-7.71244669
1811,0.404382318,0.079194695,10.74401665,12.79639149,-4.064918518,-8.429941177
1812,0.37153098,0.120513126,10.91056824,8.904966354,-11.65074444,-1.496134877
1813,0.271111518,0.05154359,10.73744583,12.15552711,-7.663734436,0.696678758
1814,0.34779048,0.256422698,11.51969719,4.848760128,-2.486545086,-4.402951717
1815,0.655947685,0.496707618,12.51169777,-22.74903297,-6.805373192,-8.707466125
1816,0.644086182,0.115986921,12.56211758,-34.24685287,-10.66659546,-10.70784378
1817,0.805466354,-0.484884977,12.51968288,-27.57570076,-17.28045273,-10.37312889
1818,0.665950358,-0.47892639,12.59444618,-13.37034607,-31.21868134,-7.884454727
1819,0.589027762,-0.05884229,12.5090313,-6.077905655,-47.4120369,-6.840978146
1820,0.880151331,0.156309605,11.66470718,-4.980353832,-47.53564072,-6.285203457
1821,1.27510345,-0.591000974,11.18108463,-10.34439945,-38.00854492,-6.202905178
1822,1.843602777,-0.972729325,10.70462513,-9.73387146,-37.63204575,-7.498869896
1823,1.744645,-0.622320414,10.23964977,-5.617751598,-35.66947556,-12.06371975
1824,1.572547197,-0.742919505,10.82888508,-6.41586113,-33.41286087,-17.94382668
1825,1.595288038,-0.680192113,11.16767502,-10.44266224,-41.83485031,-20.71788025
1826,1.873389482,-0.834424078,11.24827576,-16.18277168,-55.82593536,-16.09157562
1827,2.2159729,-1.198359728,10.99916267,-14.43868542,-71.2353363,-10.18238735
1828,2.879004717,-0.962143779,11.65490723,1.709640622,-90.7756424,-12.53517532
1829,3.185864687,-0.321443558,12.57177544,39.68608475,-106.6611633,-14.02704716
1830,3.182224512,-0.637999058,12.5962019,59.22885513,-118.1746368,-7.136867523
1831,3.613086939,-1.176573157,11.47566319,50.74740219,-134.8683777,1.036839485
1832,3.542901039,-1.51177597,9.806786537,30.56299973,-146.8393402,4.470846176
1833,4.438455582,-0.916925192,7.813659191,32.79625702,-156.1970215,5.089137077
1834,5.023215771,-0.691488624,7.950394154,31.93078041,-148.1621246,0.327632159
1835,5.439914703,-0.363350064,7.838607311,23.88798332,-139.6889191,-3.81740737
1836,5.538898945,-0.113625795,8.438196182,17.38133812,-139.9589386,-3.685606003
1837,5.595424652,-0.351815313,8.569660187,10.19288349,-140.6527252,-2.382160902
1838,5.408181667,-0.204314172,8.319381714,4.395480633,-135.2284241,-3.405121088
1839,5.464901447,-0.393545061,8.65478611,2.051021814,-127.0892868,-0.340245664
1840,4.787809372,-0.3455441,7.974939346,6.654011726,-110.5667419,0.982398272
1841,4.517944336,-0.946865678,7.56333828,3.868764877,-96.15576172,-2.130008936
1842,4.554509163,-1.28103447,7.586256027,-0.126171738,-89.54318237,-7.274815559
1843,4.02422142,-0.436091185,7.561274052,6.408437252,-79.95074463,-8.07155323
1844,3.390384197,0.550645351,7.893054962,13.84967327,-72.22177887,-6.373445511
1845,2.90880537,1.666020036,8.611530304,3.985985756,-61.73207855,-5.01083374
1846,3.305052042,2.111389399,8.74706459,-10.32397175,-49.891819,-5.690246582
1847,4.4476161,1.477401614,8.501995087,-23.45834541,-42.78161621,-0.841781259
1848,4.266491413,0.878336608,7.983288765,-30.83705139,-35.79550171,-1.644527674
1849,4.580579281,0.401310444,8.347080231,-44.57692719,-30.34691238,-0.965365291
1850,3.931750536,-0.336554736,7.995442867,-63.18110275,-3.321284533,7.375545025
1851,4.121263504,-0.433983207,7.959984303,-57.82580948,6.37885046,7.623041153
1852,5.048340321,-0.266426593,7.765062809,-51.62901306,21.62827492,3.149417162
1853,6.287889957,-0.170275629,7.25454998,-30.91001129,40.57917023,-3.21972537
1854,6.499641895,0.271994263,7.607221127,-8.326364517,53.08480453,-6.423743725
1855,5.744390965,0.475298971,7.970189095,9.143248558,67.04785156,-4.659704208
1856,4.386876583,0.328265071,5.761966705,-16.39409256,93.11408997,-0.68208766
1857,4.637887001,-0.482927412,5.141791821,-47.13766861,97.84741974,10.87448883
1858,4.627943039,-1.420391321,5.724948406,-51.44002914,115.4289169,23.05387878
1859,3.977565289,-2.088245869,4.925522804,-35.76032257,140.5840302,28.50709152
1860,4.180159569,-1.694478393,6.502925873,-12.74515343,155.6969452,22.09689713
1861,4.44115448,-0.960765719,8.25754261,-16.39952087,160.571991,19.36750793
1862,4.139131546,-0.766747057,8.429301262,-30.87199402,156.9476013,24.5066185
1863,5.195532799,-1.349769592,9.010271072,-41.36442184,156.9140015,28.94670486
1864,6.467763901,-1.665200949,9.929432869,-59.65254211,155.6121521,31.46415901
1865,6.579293728,-1.663524866,10.10217953,-58.5690155,145.8634796,36.44832993
1866,6.190047741,-2.202053785,9.926168442,-40.05189514,131.3671417,40.5240097
1867,5.556556702,-2.855686426,10.03647709,-12.08799076,119.1459045,43.7023201
1868,5.581676006,-3.000134945,10.64868832,15.37244892,111.919899,39.6993866
1869,6.069653988,-3.065277576,11.06169224,26.22493362,106.5896759,33.0729866
1870,7.144242287,-3.176606894,10.67448425,25.31336784,98.88935852,30.06137085
1871,8.483643532,-2.171465397,11.38057899,10.20796394,102.475647,21.89068031
1872,9.544863701,-1.233648062,12.09548092,-18.71867561,125.2502899,4.899851799
1873,8.538777351,0.158416748,11.69099617,-50.55821991,149.8987732,-9.198781967
1874,5.950629711,-0.950960219,10.96242332,-76.89369965,140.3495331,-2.404506683
1875,4.194610596,-2.151513577,8.375436783,-36.57822037,126.8776932,4.207740307
1876,4.085514545,-2.10932374,3.972861528,39.61354446,91.46315002,9.062330246
1877,2.14405036,-2.067519426,0.40513882,84.34980774,82.85224152,11.36513138
1878,0.014855724,-1.099140406,3.117126465,112.6171494,63.32122803,3.217175961
1879,-2.698838234,0.392822921,4.749609947,79.83880615,34.99487686,6.098918438
1880,-6.649560452,1.079810858,7.633958817,10.46183205,2.931259155,1.393792391
1881,-7.523574829,2.101981401,6.887219429,-32.60414124,-16.67433548,2.088238716
1882,-6.73076582,-0.718756199,9.702238083,-64.5395813,-31.28068924,7.654302597
1883,-2.641331911,-7.471159935,17.0383625,-111.269249,-17.16882515,17.28366661
1884,-0.263723612,-6.867136955,11.81530285,-66.06564331,-3.470878124,15.84126282
1885,1.585071564,-1.12610662,11.13693714,44.14752579,-1.454710245,15.56757736
1886,1.653415561,-0.157152295,9.68074131,61.30979538,-8.355912209,10.72284698
1887,-0.182086304,-0.323653698,11.0497694,44.90909576,-21.07385826,5.258499146
1888,-0.309047312,-0.69300884,9.55877018,32.82336426,-56.93112946,-6.184102058
1889,-0.129371107,-2.112813234,9.806493759,25.92762566,-64.10478973,-10.87741375
1890,-0.207505405,-3.148199081,9.982329369,28.57807922,-62.19262314,0.601735532
1891,0.042336885,-3.741239071,10.15632629,42.68875885,-35.8154068,2.786474705
1892,-0.946980894,-1.295464754,10.61314392,56.5399704,-16.65014458,-4.037424564
1893,-1.063225269,-0.126600355,11.1197834,52.68367004,-4.907051563,6.580006123
1894,0.250164926,-0.113756083,10.79120445,41.15695953,-9.899224281,14.58971786
1895,0.688685298,0.428459942,10.71763325,37.59141159,-19.15837669,3.931138992
1896,0.64171797,0.578705311,11.12811852,29.76254272,-40.20877838,-0.468018591
1897,0.711079717,-0.372832626,11.58116436,24.77928352,-56.84141541,1.173647404
1898,0.728702784,-1.585067511,12.47571087,21.62223053,-48.38834763,2.991599083
1899,0.35748744,-1.348048568,12.43988132,21.57530594,-30.20532417,4.163748264
1900,0.55411005,-0.126035124,12.0644989,21.3165741,-11.18126678,-0.223388016
1901,0.831607044,1.015596151,11.98878193,18.07749557,-7.445014477,-8.601736069
1902,0.860528827,1.186382294,11.6318512,9.319702148,-12.74061108,-15.73301125
1903,1.086998105,0.680221915,11.37861824,8.177984238,-20.15161324,-17.50910568
1904,1.277676821,0.005844321,11.29070377,9.25099659,-23.35429573,-15.30304623
1905,0.979515016,-0.499363869,11.42396641,6.875011444,-18.56012726,-10.09482288
1906,0.544817448,-0.517496347,11.44864368,1.669987082,-8.776982307,-7.136936188
1907,0.501018226,0.394907534,11.3636446,-3.379846334,-2.318724871,-7.657296181
1908,0.782140315,1.415043712,11.17532063,-10.24176311,-1.315769911,-7.657746792
1909,1.024585128,1.539038658,10.87854099,-15.92623711,-6.929625988,-5.154919624
1910,1.021302581,0.90718925,10.73695278,-17.72852516,-11.19810677,-2.238054037
1911,1.067077398,0.105361484,10.63202381,-13.06790733,-12.91959858,0.756363034
1912,1.258887649,-0.632981598,10.58711338,-6.489230633,-10.03869152,3.761970043
1913,1.417335153,-0.991026103,10.82937813,-6.921681404,-5.005402565,8.415036201
1914,1.258038044,-1.185777068,11.04611969,-8.46777153,-5.867785931,13.23163033
1915,1.097852945,-1.135987401,11.38868713,-8.715465546,-14.75281239,13.84676743
1916,1.550186634,-0.842611074,11.43793678,-5.855882645,-22.54996872,10.15715408
1917,1.786729932,-0.437348813,11.62478161,-0.978573382,-22.19717026,6.114178181
1918,1.779586911,-0.008642663,11.82392311,0.885015905,-17.32769012,3.322988987
1919,1.650078654,0.46733588,11.7191124,1.608254075,-12.90361881,1.309392214
1920,1.627136827,0.619053781,11.02884579,1.91935873,-7.554084301,-2.637763262
1921,1.494101524,0.124683313,10.82930374,-1.435495853,-6.325050831,-4.965835571
1922,1.525305152,-0.488486171,10.93566227,-7.353802681,-12.60785484,-4.076782703
1923,1.626838923,-1.002466917,11.04158974,-16.12907982,-18.49468613,-1.247853279
1924,1.677598596,-1.468472242,11.12707615,-19.57972527,-22.53026772,0.094863325
1925,2.060760021,-1.720213771,11.0683403,-16.6812191,-30.68486786,-0.790507317
1926,2.332611084,-1.847290516,10.8827858,-11.97287655,-46.64678955,-4.080552578
1927,2.169272184,-2.372711182,10.80971622,-10.17331409,-62.60302353,-11.07179451
1928,1.887819171,-2.034047127,11.37425423,-5.735933304,-96.1556778,-16.18115807
1929,3.086088657,-0.545424938,10.54288769,43.46926498,-135.348526,-2.705585718
1930,3.364352226,1.27758038,9.390980721,79.18254089,-147.8638916,6.453997612
1931,3.945402384,0.490255415,9.212748528,79.93032837,-140.9239807,3.511320114
1932,4.020202637,-0.479360849,8.082295418,56.71557617,-125.6856766,2.231412649
1933,5.084499359,-0.09902662,8.298462868,33.01007462,-128.8559113,4.668179512
1934,6.117694378,0.882738888,9.009062767,29.47338295,-132.9355927,14.18343353
1935,6.019561768,0.783654034,9.322556496,24.93174553,-129.4661255,20.12103462
1936,5.179846764,0.416754305,10.03306866,21.2170105,-139.5968933,19.97968864
1937,5.034181595,0.11261446,10.21683598,20.22242737,-150.0164337,17.67845535
1938,5.179953575,-0.378286868,9.38215065,18.97706413,-141.7686005,14.82044697
1939,4.831825256,-0.343284309,8.581139565,22.31651115,-117.7526703,13.98980427
1940,4.692603111,0.049856834,8.72694397,24.14065933,-94.9717865,14.93837357
1941,4.355832577,0.495254457,8.717908859,15.60319042,-73.7302475,15.05984306
1942,3.967623949,0.855435967,8.356963158,6.840504169,-53.81073761,13.9016695
1943,3.679926634,1.121741176,8.378593445,0.443865597,-49.16237259,12.28980637
1944,3.71163106,1.293100476,8.766635895,-14.83107281,-53.79908371,10.32804775
1945,3.389140129,1.453679562,8.446452141,-30.40158844,-51.08362198,9.678836823
1946,3.371981144,1.289244771,7.797989368,-33.1102066,-42.65458679,10.8977108
1947,3.533064365,0.724077284,7.489499092,-29.52344131,-37.53008652,9.827270508
1948,3.541750193,-0.158852249,7.241239548,-25.27429008,-27.72662926,4.306854725
1949,3.185251951,-0.633010685,7.528994083,-17.91829872,-13.83792973,-6.793858528
1950,3.816233397,-0.614765465,7.896029472,-15.98190689,6.012607574,-7.681540012
1951,4.714344978,-0.730898857,7.951156139,-13.91631126,26.97070694,-5.42661953
1952,5.552054405,-0.214245468,8.217168808,-8.814281464,40.92944336,-5.81570673
1953,6.402508259,0.993643999,7.963246822,-10.60840607,53.65473557,-5.855457783
1954,5.775743008,1.459593058,7.69227314,-3.14373064,60.2492981,-5.900653362
1955,4.891966343,0.958156645,7.170836449,-8.775887489,67.46234894,-4.329679489
1956,4.31703043,-0.550807953,6.340612888,-14.29464912,81.08518219,2.222140551
1957,4.258910656,-2.009509325,6.45615387,-35.7387886,89.9871521,9.49805069
1958,4.428556919,-1.41065383,5.587227345,-40.85830307,112.4460373,14.28887081
1959,4.431157112,-0.602365911,6.535779953,-40.42310333,137.5754547,16.53520775
1960,4.132013798,-0.647608757,5.996268749,-29.20321846,161.380127,19.01430893
1961,4.312631607,-1.446394801,7.76390934,-31.46638107,164.0048065,22.13855171
1962,4.707823277,-1.242374778,8.811257362,-38.87595367,161.3636932,21.97217941
1963,5.173694611,-1.139383435,9.562872887,-46.36972427,156.7602997,20.91716003
1964,6.091733456,-1.769744396,9.443230629,-56.97327423,150.9375153,21.79411125
1965,5.987193584,-2.128914118,9.10057354,-57.07117844,146.8162842,27.06264496
1966,4.930540562,-1.959063768,9.322616577,-37.14627075,141.5620728,34.94141388
1967,5.099471569,-2.184810162,11.75138474,-26.72536659,121.7483978,39.7381134
1968,5.649539948,-2.014700651,13.3126812,-23.55763817,99.53226471,34.72938919
1969,6.496379852,-2.122793436,14.17212486,-28.61198807,102.9934692,21.94029617
1970,6.984777451,-2.507096052,13.44760227,-41.80976486,98.22171783,16.14623833
1971,7.679930687,-2.769603014,12.56743526,-38.4728775,86.18979645,17.43107605
1972,8.489877701,-2.792561531,11.61491585,-12.68486691,86.17892456,16.94726563
1973,8.667404175,-2.349552155,9.573265076,21.4785862,105.3284225,5.905172348
1974,7.147774696,-1.42714119,6.655684948,61.50585556,112.6160965,-1.30844295
1975,5.607597828,-2.270699739,5.762277126,80.57138062,118.6009903,8.812240601
1976,3.146160841,-2.586908817,4.033912659,70.25487518,81.8727951,0.339606285
1977,1.961203933,1.651789308,-0.361672819,69.56171417,41.56314087,-7.610978127
1978,-0.916108727,3.223849058,3.793408632,63.94991302,55.88865662,-5.217849255
1979,-3.140758038,2.633250952,5.591209888,24.05513954,29.13937759,3.647094011
1980,-6.206627369,0.831134915,8.380322456,-66.88309479,17.19936371,14.20873451
1981,-7.591417789,-0.307480603,12.28258801,-124.4223633,4.664506435,18.8963356
1982,-8.477669716,-2.8076756,8.645258904,-139.546936,-20.70915985,9.126607895
1983,-2.38354373,-6.131912231,11.37837029,-92.11250305,-20.34636116,13.5674305
1984,-0.575228333,-10.954813,14.1603117,-48.60075378,-13.14129353,14.68828487
1985,2.067536354,-1.352392554,9.973397255,51.17142105,-11.32041645,-3.103821278
1986,3.66109395,-1.536917448,11.55007839,61.67708206,-28.34250069,0.397547543
1987,1.501469254,-1.242812991,9.824064255,29.99493027,-12.28488159,13.67695904
1988,-0.615695179,-1.952088594,10.83383179,40.05414581,-35.53455734,19.15759468
1989,-1.317881703,-2.111655712,11.21581745,32.21586227,-51.95453262,4.127502441
1990,-1.667389035,-1.178300619,10.27193928,16.47895432,-36.15699005,0.47519505
1991,-0.688733876,-1.910102844,10.40969467,16.50496483,-14.15810299,0.918780208
1992,0.045762666,-1.751674891,10.93054962,22.95554543,-2.164417744,-2.4907372
1993,-0.165910199,-1.885617256,10.89009285,30.09495163,-7.515865803,-2.259405851
1994,0.502893209,-1.359580398,11.30726719,38.20500565,-14.88751793,-4.574449539
1995,0.003967099,-0.27695334,11.56777096,49.38076019,-17.60283852,-5.576163292
1996,0.082415298,0.11315053,11.7965889,50.67650223,-27.50668716,-0.680774271
1997,0.033004519,-0.039059527,12.08735085,51.27489853,-25.44489288,2.865421772
1998,0.056362748,-0.43220371,11.99168682,53.74724197,-18.66623688,2.615951061
1999,0.146208882,-0.610019922,11.58765221,48.34700012,-14.68679237,2.166994572
2000,0.368815154,-0.147575393,11.33217621,34.01620865,-17.37830162,4.827353001
2001,0.29733631,-0.06097731,11.52866936,21.85167122,-11.17843151,7.770109653
2002,0.471517265,-0.441133618,11.46071053,15.45930386,4.378157139,10.10980129
2003,0.617560685,-0.425995022,11.33233929,8.677276611,9.216566086,10.52172661
2004,0.318512887,-0.035950687,10.92033672,3.758363247,-1.720943213,6.786092281
2005,-0.183604479,0.058363799,10.72044086,2.936746597,-9.938511848,-2.136701822
2006,-0.201313183,-0.21095337,10.79162884,2.703198671,-12.84946823,-9.086473465
2007,0.085489936,-0.470329434,10.89941978,4.064436913,-11.52030563,-9.108446121
2008,0.514854729,-0.535199702,10.80572701,8.290265083,-7.960277557,-4.539532661
2009,0.57508713,-0.038445827,10.69290733,11.08952141,-4.762241364,-0.00247803
2010,0.299331248,0.502383769,10.6814642,13.64172554,-2.862977028,0.843702137
2011,0.089091979,0.505400658,10.84439278,12.9299736,-5.250031471,-0.809233904
2012,0.210914999,0.176804468,10.99103355,9.265298843,-11.25798798,0.200944588
2013,0.47980237,0.030080795,11.18013,5.364767075,-18.8364563,4.291285992
2014,0.973799706,0.036830045,11.20470238,-3.787109852,-27.57872009,4.535265446
2015,1.027147889,0.069745347,11.36561108,-4.554293156,-31.31380463,0.324962258
2016,0.683579147,0.031901322,11.53377724,-1.280612826,-28.24812126,-3.630712509
2017,0.360612899,-0.09889695,11.20703697,3.191800356,-17.29838753,-3.732952833
2018,0.449246198,0.550498545,11.04346371,6.309508801,-14.6904974,-2.327876329
2019,1.429760695,0.841032684,10.21175957,6.831741333,-17.14297485,0.013440281
2020,1.735042453,-0.119913593,10.18326759,-1.419725776,-13.83896255,2.830557346
2021,1.887139916,-0.893635273,10.27331734,-7.854196072,-17.93640709,4.590089798
2022,1.713170171,-0.956356466,10.33462048,-8.717265129,-20.59620094,4.873785496
2023,1.503987074,-0.751719952,10.53282738,-1.666576624,-23.04229546,2.771555185
2024,1.637501597,-0.467607945,10.72281456,3.989534855,-27.7730217,-0.287791461
2025,1.70463109,-0.161553815,11.30377293,1.028457165,-36.03214264,-2.106135607
2026,1.561162353,-0.128292441,12.01517677,-6.369691849,-49.92641449,-1.537249327
2027,1.565846801,0.228832901,12.83244324,-9.711533546,-69.88554382,-1.781509876
2028,1.706043005,0.389963508,13.2635355,7.688398361,-102.4182892,0.994360268
2029,2.41921258,0.541706562,12.90528774,14.96091652,-130.4764404,-2.491518259
2030,2.580565453,0.442806274,10.75597095,26.62119293,-167.4391785,-5.009340763
2031,3.667500019,-0.167281121,7.931994915,47.54790497,-185.4572601,3.643506289
2032,4.246315002,-1.526366234,7.916101933,46.10725021,-164.7436676,10.59402275
2033,5.060839653,-1.571394324,7.257264614,23.93052864,-142.7561493,5.999290466
2034,5.599721909,-0.941054702,7.789475441,13.99524212,-133.8787231,2.048051834
2035,5.812405109,-0.373550534,8.312725067,17.32029152,-128.635498,-1.245670795
2036,5.88296032,0.467768312,8.597613335,25.50209427,-133.7449951,1.425586939
2037,5.922485352,0.917181134,8.778101921,32.61117172,-138.484375,7.087752342
2038,5.470133305,0.664409935,8.901391983,35.69355392,-141.3813171,13.11687851
2039,4.791524887,0.192624852,9.299248695,31.86466599,-144.9804688,15.50081253
2040,4.825671673,0.128808871,9.08438015,30.29420471,-135.0235596,14.99825382
2041,4.953269958,0.25401926,8.71264267,27.24403572,-109.4051666,13.04004765
2042,4.662781715,0.475002348,8.801486015,16.3123436,-85.64160156,8.824601173
2043,4.3455019,0.617935658,8.667796135,0.174201563,-71.84072876,5.146780491
2044,4.075994015,1.015401721,8.312959671,-8.314182281,-70.16387177,2.054450035
2045,4.051282883,1.21965301,7.380097866,-6.687137604,-59.50631714,1.770634651
2046,4.16917038,1.054845572,7.415184498,-4.905229092,-47.34842682,-2.974465132
2047,3.986799717,1.534835696,7.524633884,-10.2149353,-40.84199142,-4.805959225
2048,4.115535736,1.574155211,7.747141361,-18.74656105,-31.05585289,1.4461447
2049,4.495933056,0.862679303,7.814651012,-27.03336143,-21.70448875,6.489588261
2050,4.721477509,-0.348318428,8.344395638,-33.88766861,4.623949528,2.29255724
2051,5.129510403,-0.735209346,8.22111702,-33.29549408,25.52318573,-6.515630722
2052,5.774871826,-0.843124747,7.67957449,-20.34401131,39.18028259,-12.97037983
2053,6.135063171,-0.33417818,7.307547569,-9.379000664,63.08562088,-14.82018089
2054,6.604868889,0.995328546,7.603975773,-23.63265419,61.58598709,-12.21917343
2055,6.65152359,2.036016464,7.827116013,-30.98697662,46.92059326,-6.055499554
2056,5.842289448,1.992318749,7.637165546,-19.1862278,54.49367523,-3.338834524
2057,4.803494453,0.651588857,8.645914078,-5.005027771,73.22009277,-2.997440815
2058,4.43289423,-1.149697304,6.600974083,-31.17028236,97.51849365,-3.081743956
2059,4.753535271,-1.859871507,4.769116879,-45.23179245,105.7852707,1.111239552
2060,4.856109142,-2.064920664,4.633954048,-36.91313934,141.8591766,5.024202347
2061,4.509633541,-1.237302542,6.401806831,-15.46511745,161.2671509,3.670024157
2062,4.087116718,-0.359049648,7.255172729,-20.15500069,163.6369324,1.919208884
2063,4.460785866,-0.224739969,8.237421989,-32.35449219,162.4549561,0.846600711
2064,5.680590153,-0.30502072,9.979791641,-47.13443375,161.728302,5.962088108
2065,6.754687309,-0.054031141,9.532158852,-49.46511841,163.4353485,16.43634415
2066,7.313973904,0.221782252,9.321430206,-43.16752243,160.9500427,21.6584034
2067,7.55782032,0.815551758,10.55346298,-41.05827713,152.5888977,21.07086182
2068,7.007838249,0.484587789,10.87196445,-27.36499405,135.3013306,27.34639168
2069,7.329793453,-1.845451832,12.01992893,-37.40015793,121.8070984,29.28528595
2070,8.034275055,-3.01350522,11.76930141,-49.30890274,115.1156693,17.38759232
2071,7.612324715,-2.144705772,9.60693264,-34.13345337,119.2441864,5.791677952
2072,7.139305592,-1.509269357,9.69318676,-13.53107357,111.8890991,7.535991192
2073,7.887640953,-2.899272442,8.636598587,15.86695004,97.63671875,24.44884872
2074,8.592935562,-4.067324638,7.171560764,70.17539215,88.54974365,34.57201004
2075,7.520417213,-2.224501848,5.311735153,116.1279449,76.75619507,21.64433861
2076,5.361849308,-1.415291548,4.608280182,110.6055298,72.29064178,0.668634951
2077,2.0256145,-0.536931515,0.981937289,61.32923126,84.76028442,-26.94079399
2078,-2.496490002,2.629719496,1.146357417,71.13239288,83.64052582,-26.73303032
2079,-5.611393452,1.308306217,8.651512146,9.919538498,81.47657013,-10.05176067
2080,-10.44802475,1.161293864,6.644443035,-19.15001678,20.58770752,10.42777061
2081,-9.865732193,3.718778849,11.8247385,-14.47963905,3.234477997,12.62884426
2082,-5.643752098,1.124210835,13.85631943,-52.84784698,4.06878376,0.738549471
2083,1.469171047,-4.123608589,16.78829193,-53.85243988,-9.574400902,-22.82886696
2084,2.683924675,0.238481611,10.15519714,-8.434427261,24.84554863,-27.83596611
2085,2.107807636,1.314819574,12.02396393,8.123478889,-1.278107882,-21.24412537
2086,0.709713578,1.815380573,10.58592892,-14.30103779,-6.989974976,-6.368814945
2087,0.432608962,0.435247511,10.92568398,-30.31685448,-25.59309006,1.823135018
2088,-0.456209272,-1.465937257,11.13547134,-39.58653641,-40.52442169,-0.061759327
2089,-1.070860147,-2.88784194,10.98735523,-42.67052078,-34.5616951,3.567810297
2090,-0.961706758,-3.739976883,9.906346321,-11.76394176,-19.83856392,3.175493956
2091,-1.01223433,-2.033001184,10.73244095,10.95764828,4.933125973,-11.11006355
2092,-0.987756491,-0.518435478,10.88350201,9.59731102,17.71550369,-14.69145012
2093,-0.76465714,-0.439969301,11.44953632,6.547817707,21.58838272,-10.41277504
2094,-0.349072307,-0.600795448,10.63682461,8.319465637,-8.673362732,-7.183509827
2095,-0.107508697,-0.886363089,10.42919827,20.91207886,-12.92835808,-6.225180626
2096,-0.549288094,-1.427542686,11.31063938,28.63528824,-26.83979607,-5.733241558
2097,-0.443667054,-1.844897866,11.39264297,21.36436653,-33.78425598,-2.818904638
2098,-0.239424631,-1.15493989,11.44394016,18.00515556,-27.53111076,2.239531517
2099,-0.298582613,-0.399744898,11.49114132,7.827130318,-17.5342083,4.797066689
2100,-0.529640496,-0.431940943,11.62229252,-6.177196026,-8.019965172,3.278637886
2101,-0.299431026,-0.763150334,11.8494997,-9.703811646,-7.116709232,2.184309483
2102,-0.088397719,-1.091510057,12.03922749,1.831174135,-10.64748478,1.067403197
2103,0.186817273,-1.073647738,12.02878571,8.252384186,-10.49058342,-1.233405828
2104,0.166999057,-0.411466867,11.60972023,6.853777409,-10.92851067,-1.440625668
2105,0.043506026,-0.05607494,11.16791248,2.348333359,-10.80177498,0.596436799
2106,0.001581443,-0.416035384,10.91659641,-3.499970436,-10.51673889,1.666657567
2107,0.244399786,-0.625805318,10.40132713,4.165202618,-7.015045166,1.493502617
2108,0.478633165,-0.430839479,9.654325485,20.65024567,-3.909803867,1.524764776
2109,0.409657419,-0.496806055,9.489130974,41.08252716,-2.86233902,3.199730635
2110,-0.192824215,0.022873629,10.03601551,47.5014801,-4.8808465,1.870145321
2111,-0.455158949,0.574156463,10.90604591,35.81652451,5.837360382,-2.057260275
2112,-0.446354687,1.14882803,12.01899052,12.33523369,16.15264511,-1.758999228
2113,-0.082949042,1.327330947,12.32658577,-4.621282101,11.79514027,1.612025619
2114,0.282937348,0.772364378,12.01542759,-4.335762501,2.34876132,-0.262331694
2115,0.182313025,-0.139016062,11.85175228,4.669345379,-10.24498367,-5.958426952
2116,0.289010108,0.04783231,12.3575058,17.66595268,-24.57371712,-8.899586678
2117,0.157286435,0.750241637,12.82045937,13.6811285,-36.54790115,-3.304183722
2118,0.265060008,1.01970315,12.19665909,0.718548954,-39.32236862,2.477779627
2119,0.687416494,0.466577381,11.08118725,0.124900907,-36.25313568,4.485125065
2120,0.989711702,-0.577819765,11.25434017,1.940250993,-41.73410034,3.900876999
2121,1.179529905,-0.629263461,10.9314661,7.911780357,-53.74068069,1.541055202
2122,1.284578204,0.008648167,10.4151392,13.18044186,-50.87931442,-2.282869101
2123,1.562925935,0.320969731,10.77764988,17.35793877,-49.01102448,-4.579991817
2124,1.802286744,0.671640873,10.64924622,16.29879379,-54.65499878,-4.391475201
2125,2.135921478,0.643392444,10.32563782,9.515235901,-69.03257751,-0.196299076
2126,2.239693403,0.736473441,10.39658165,-1.349166393,-94.81281281,5.532961369
2127,1.719271541,1.608094215,10.1430912,17.98924637,-138.0769958,10.84399223
2128,2.755394936,1.477033377,10.16531277,55.33533859,-170.3344421,2.672045946
2129,4.052311897,-0.522023499,12.41285992,47.01725006,-165.0211487,-9.575745583
2130,4.585624218,-2.860692978,12.07757759,34.81128693,-158.6125793,-11.98451519
2131,4.785245895,-1.127104044,9.662036896,34.23744583,-137.3089447,-3.121537685
2132,5.025550842,1.14517498,9.551512718,45.73723602,-129.1215515,13.17653179
2133,5.878599167,1.9440552,9.546416283,32.98891068,-141.2088623,16.21323013
2134,6.002081394,2.230697155,9.232280731,16.1162281,-164.3858185,11.49956703
2135,5.787365913,1.627912045,8.747799873,2.020206451,-163.0482788,11.43040371
2136,5.777646542,0.995033622,8.215747833,-14.63815975,-146.3579102,17.36116028
2137,5.63850975,0.325863123,7.559403896,-24.48426056,-128.827301,20.21028137
2138,4.874594212,-0.07605771,7.758212566,-24.63679504,-110.3221664,17.81135941
2139,4.601559162,-0.156417832,7.899418354,-17.57367325,-95.30838776,15.08036613
2140,4.930368423,-0.094394475,7.642931938,-13.6268034,-74.73447418,12.10528183
2141,4.9047122,0.06922891,7.624121666,-4.426636219,-59.63562012,10.43996906
2142,4.552834988,-0.098360106,8.255525589,4.439188004,-56.78259659,11.54299355
2143,4.027925014,-0.416463614,8.48906517,4.531215668,-56.42324448,10.84560204
2144,3.444455862,0.033573698,8.936760902,9.456814766,-54.99676132,9.890301704
2145,3.031221867,0.460055143,9.030209541,9.494675636,-49.77414703,7.004189014
2146,3.282180309,0.708793759,8.571280479,10.49827576,-42.59768295,5.426145077
2147,3.742146254,0.921759307,7.969293118,9.610243797,-35.45402527,2.332796335
2148,4.336987019,1.216029763,7.405878544,2.994891882,-21.46059799,-5.602519035
2149,4.876917362,1.460296154,6.572493076,-4.601895332,-12.77741337,-9.450063705
2150,4.892635822,0.987052739,6.276175976,-24.00149918,3.389617443,-0.812788665
2151,5.309347153,0.196582526,6.980688095,-27.01297951,5.27259922,0.587845027
2152,5.957367897,0.054084141,6.861683369,-35.84983444,24.21207237,-5.616287708
2153,6.684735298,0.215676457,6.624023914,-29.09482002,37.80129623,-7.645683765
2154,6.679253578,0.244777411,7.149321079,-36.40166473,50.67377472,-3.987703085
2155,5.900436401,0.673098683,6.527179718,-41.38547897,62.65403748,0.421330899
2156,5.321524143,-0.031296793,6.644015312,-37.27322769,85.44329071,2.057255745
2157,4.26836586,-0.766602516,6.572311878,-36.46897888,104.7566452,5.26623106
2158,3.996175528,-0.93592906,7.255122185,-30.3332119,107.3215942,12.14155388
2159,4.251979828,-0.463210493,6.140868187,-18.4296093,127.7374878,16.13958931
2160,4.636541843,-0.590702951,7.540521622,-13.54871845,132.2147064,16.26631546
2161,4.995266914,-1.306865811,8.55840683,-5.714247704,132.3245087,12.06512642
2162,5.787120342,-0.909294903,8.806777,16.64010239,141.3923645,5.43479538
2163,6.523545265,-0.446631968,9.057507515,16.80382538,159.4839783,4.654756546
2164,6.835929871,-0.011895407,9.980461121,-19.37039948,163.7928772,10.43139267
2165,6.434666634,0.460090995,9.308624268,-38.93035507,155.4212036,18.49415016
2166,6.555900097,-0.095892325,8.629981995,-38.21522141,141.5415497,23.1983242
2167,6.968100071,-0.723682344,8.392706871,-29.44907761,136.383316,25.01375008
2168,6.744877815,-1.508777499,9.82756424,-38.41421509,140.8899078,22.51799774
2169,7.135350704,-1.648580432,11.56063843,-56.35816193,132.8009186,18.44298553
2170,7.364273071,-0.859291017,11.32576847,-52.29560471,132.1155701,15.92656708
2171,7.391123772,0.364033818,11.24375534,-53.36129379,145.8681641,8.858190536
2172,7.646815777,-0.18109566,11.68935204,-61.76723099,158.4680481,0.109287724
2173,6.775218964,-1.814804435,9.907942772,-24.3462162,133.1794434,0.676379144
2174,6.934984684,-3.836917639,8.830892563,42.65512848,112.7870331,13.02772141
2175,5.96459341,-3.187887907,6.9946208,93.19717407,100.3233414,21.00385284
2176,4.789693356,-0.826857328,4.677307606,98.17978668,80.75827026,16.97722816
2177,2.403122425,0.73105526,3.171069622,67.77175903,73.59638977,-1.492984772
2178,-1.252843499,1.429982662,3.237811804,43.04071045,55.63897705,-4.236978054
2179,-3.53063345,0.91030401,5.979869366,36.08188629,21.01308441,9.744548798
2180,-5.920546055,0.113538645,9.549469948,-8.701961517,4.550939083,14.59370136
2181,-7.88580513,1.768571496,5.658625603,-2.714838982,-3.39033556,10.66892433
2182,-7.564166546,1.329232216,11.19200134,7.065128803,-9.534867287,11.2203331
2183,-4.577441216,-2.382267237,16.59158707,-50.72690201,-1.808996916,7.580686092
2184,-0.951905131,-5.477876186,13.817976,-43.32225037,-13.48184109,-4.16850996
2185,2.918023825,0.577837229,10.74171734,19.06944847,-21.63005257,-3.351226568
2186,2.696655273,0.621981144,9.81253624,24.76611519,-26.84246063,-0.584593475
2187,0.930930853,0.929242373,10.11942005,17.05692673,-23.66153526,13.76066208
2188,0.814170122,-0.211709291,10.21887589,11.23727798,-47.70486069,12.83391094
2189,-0.202522114,-1.147473454,10.72604847,23.88224602,-37.70458603,3.604103565
2190,-0.315086067,-0.610724211,10.54624367,19.27431297,-21.91253853,0.131694496
2191,-1.080313325,-1.292041183,10.73309898,30.41272926,-7.6860075,7.557181835
2192,-1.497586012,-0.495710671,10.66051865,46.97787094,-4.165037632,10.87210464
2193,-1.101417184,0.39151758,10.69754314,53.63612747,-2.064123392,7.552206993
2194,0.071364179,0.822903335,10.83574772,45.32752991,2.251436234,0.859542787
2195,0.441073269,0.977440476,10.69630814,33.73409653,-2.103548288,-12.23885918
2196,0.631147981,1.430675745,11.09419441,38.54388428,-15.22327805,-15.8426857
2197,0.346202821,0.996008813,12.31054783,35.52397919,-15.76631165,-9.416517258
2198,-0.312743425,0.68369925,12.83896732,27.60101509,-8.114785194,-0.371033043
2199,-0.378857076,1.228361487,12.38810444,22.72307777,3.811612368,0.192069992
2200,-0.501583517,1.787969112,11.86359501,21.88671875,6.06897831,-3.332006931
2201,-0.332901239,1.399757028,12.02127743,25.52235413,6.758555412,-9.230322838
2202,-0.205908656,0.856600702,12.18025875,19.77304649,10.30050182,-11.72701073
2203,0.051081318,0.71324265,11.4401865,6.613010406,8.660182953,-7.670297623
2204,0.224973246,0.977120996,10.59957218,-6.163454056,1.626413107,-0.723699749
2205,-0.163343772,1.072638512,10.11869812,-14.7002306,-2.13337326,2.871487141
2206,-0.332772553,1.102651358,9.978536606,-12.27957249,2.049670219,1.444851518
2207,-0.086759798,1.034006357,10.10091782,-1.113166571,7.305722237,0.190680161
2208,-0.033606686,1.319159389,10.18829346,2.01804471,11.85477352,0.211349681
