PacketCounter,Acc_X,Acc_Y,Acc_Z,Gyr_X,Gyr_Y,Gyr_Z
0,0,0,0,0,0,0
1,9.373134613,1.94678998,-0.930490792,-5.090653419,-1.233392596,0.513605177
2,9.420461655,1.839247227,-0.980781734,-3.944150925,-1.729804993,0.103097521
3,9.465731621,1.855238557,-0.987528563,-1.773077488,-2.371991873,0.177361533
4,9.448662758,1.89419508,-0.895512462,0.257593304,-3.484261751,0.023749374
5,9.396608353,1.981548309,-0.829980552,1.126158357,-5.108952999,0.063986927
6,9.37957859,1.993613124,-0.532091439,-0.178917542,-7.805920124,0.987606645
7,9.40699482,1.879037619,-1.04301703,-3.843738079,-11.43575478,2.045642376
8,9.443172455,1.968735576,-1.184169054,-2.539614916,-8.646759033,1.71519959
9,9.540361404,2.037909031,-1.062252283,-1.369588017,-8.117536545,1.711075902
10,9.502082825,2.063543558,-1.049767971,-1.514235854,-7.128514767,1.845209599
11,9.498440742,1.993941426,-0.951957285,-1.206960201,-5.806296825,1.909753561
12,9.553518295,1.974648714,-0.888112068,-1.32349813,-4.790536404,1.889455795
13,9.590872765,2.063900471,-0.877073944,-0.9663288,-4.176893711,1.75030148
14,9.642115593,2.100102663,-0.865538239,-2.36753583,-4.041941166,2.467073441
15,9.594531059,2.084538221,-0.973194003,-3.790846348,-4.972398758,2.799692392
16,9.528598785,2.001992702,-0.934345841,-4.34543848,-5.591457844,2.638767958
17,9.515990257,1.821958899,-0.993493736,-4.584738255,-6.183892727,2.412569523
18,9.527536392,1.751268148,-1.044559479,-3.789783955,-6.966527462,2.132661104
19,9.511968613,1.72674942,-1.166235924,-3.384501457,-8.904847145,2.189291
20,9.407388687,1.794588685,-1.22835505,-1.01838696,-10.83858013,1.968432784
21,9.436510086,1.829696536,-1.415821075,0.353448987,-10.64670467,1.237753391
22,9.474235535,2.004543781,-1.343481898,1.766335487,-9.03246212,0.551563263
23,9.47663784,2.144207954,-1.268918395,0.931105137,-7.874140263,0.402343631
24,9.443432808,2.226488829,-1.193694949,-1.016235113,-6.486339569,0.375872791
25,9.513587952,2.266797781,-1.108849764,-3.689509392,-5.074837208,0.694085062
26,9.579946518,2.234998465,-0.964428365,-5.707727909,-4.089888096,0.701756179
27,9.585353851,2.143640518,-0.845367134,-6.573461533,-4.07574892,0.807651818
28,9.617588043,2.017729282,-0.759117365,-6.302364349,-4.472119331,1.123085022
29,9.604260445,2.060834885,-0.979111612,-7.577160835,-4.749505043,1.161171198
30,9.62007618,2.017168999,-1.029899478,-6.643858433,-4.430984974,0.624277592
31,9.699067116,1.903513074,-1.009003401,-3.841725349,-4.69478178,0.009739229
32,9.761311531,1.732309937,-1.019874096,-2.977284908,-5.889769554,-1.890576124
33,9.543130875,1.887826085,-1.085416317,-4.552415371,-8.967123985,-2.346367121
34,9.421779633,1.966493607,-1.112826824,-3.483367443,-10.88731098,-2.323815584
35,9.428681374,1.954999089,-1.126253247,-4.935838699,-11.2063303,-2.054792404
36,9.343225479,2.094554901,-1.059606671,-8.626159668,-12.81268597,-0.748416424
37,9.279214859,2.155391216,-1.069716215,-10.6866703,-16.35257721,0.528076947
38,9.251735687,1.995100379,-0.968858302,-10.49787045,-19.64055634,1.672185659
39,9.262987137,1.897876859,-1.006132007,-11.53020763,-21.33665085,3.024039745
40,9.262428284,1.985571265,-1.187153459,-9.113183022,-21.68609619,3.485389709
41,9.301861763,2.022580385,-1.217131019,-5.290606499,-21.76101112,3.672924995
42,9.408616066,2.025330067,-1.289939284,-2.189697742,-22.29878807,3.369913578
43,9.382102013,1.977406979,-1.292180181,1.717584014,-22.09470177,3.22555995
44,9.436573982,1.83334136,-1.304414392,5.562044621,-21.70517349,2.894963741
45,9.498327255,1.811184287,-1.225611091,7.583209038,-19.59489822,2.86741662
46,9.452108383,1.808379292,-1.27895999,11.56195545,-17.38497925,3.113849878
47,9.587907791,1.844779611,-1.408180237,15.27830029,-13.9436903,3.257421732
48,9.782592773,2.087016582,-1.582863331,16.27542496,-9.105121613,4.698085308
49,9.838636398,2.234967709,-1.704769731,14.67005253,-0.803227782,6.915800095
50,9.866168976,2.296104431,-1.683437586,15.31134987,7.323327065,9.097943306
51,10.04150677,2.146923542,-1.521443486,8.895298004,15.01309204,12.24730206
52,10.11456585,2.055057526,-1.448206544,-1.037894011,25.82177544,14.75654221
53,10.0007143,1.791065454,-2.124588728,-4.365706921,34.26685333,16.45230675
54,9.518783569,1.607079148,-2.674216032,2.433883429,42.9101944,15.36106491
55,9.223609924,1.43276608,-3.048994541,17.06152153,46.03313065,11.59929562
56,9.028512955,1.590512872,-3.395785093,36.31755066,47.59175491,8.934215546
57,8.853757858,1.890983701,-3.400777578,50.33682251,46.59902954,8.08847332
58,8.784711838,2.233761787,-2.932934284,57.33750534,41.61889267,8.143023491
59,8.826807022,2.288729191,-2.626145601,60.55369949,37.3435173,8.81273365
60,8.836119652,2.106819391,-2.33728075,61.20445251,30.95437622,9.604168892
61,8.873935699,1.828598022,-2.291396141,62.06164551,26.34580803,10.58636379
62,8.896077156,1.797165394,-1.99527669,61.73456955,23.34448624,11.05361652
63,8.816067696,1.949128032,-1.910139918,60.48456955,20.057024,12.05438709
64,8.723344803,2.145620108,-1.816360235,57.85963821,16.05462456,12.79259968
65,8.803912163,2.143558264,-1.922770619,57.19923019,11.90812206,14.27589226
66,9.543919563,1.759502769,-2.158904314,55.78095245,9.06278038,16.37448883
67,11.75116539,0.598099768,-1.260660052,45.07080841,10.45449734,14.48888874
68,11.51429176,-0.140092477,-1.397853136,45.43922043,12.88959217,6.628275394
69,10.08598042,0.363933593,-0.45805636,53.59664536,25.33227348,0.481102139
70,8.756406784,1.630731821,0.21221745,57.38919067,29.59999847,-1.771637321
71,8.468489647,2.709088087,-0.496722192,70.35482025,34.91354752,-2.498617887
72,10.26897144,3.048253059,-0.466664851,71.27559662,34.98642349,-3.654174805
73,11.71242714,2.571495771,0.134786591,56.82597351,31.70620346,-4.46354723
74,10.60136604,1.382804155,0.464113593,40.56728363,36.97361755,-5.860868931
75,9.721084595,0.513766408,0.608429074,29.31645966,45.49316025,-9.136061668
76,9.84912014,0.088982046,0.480945349,24.68219376,52.34054947,-10.24529934
77,9.603774071,0.130498573,0.151041016,33.13351059,58.93329239,-7.627682209
78,9.779916763,0.441966474,0.199036792,45.19283295,59.18596649,-0.703921139
79,10.70674515,0.750774264,0.746649623,50.02137756,54.959198,9.833421707
80,11.02196598,0.960234821,0.664343596,45.69377518,56.67418671,19.40730858
81,10.25009918,0.889454961,0.534512579,34.86814499,63.24577713,23.36728859
82,9.408871651,0.762675107,-0.356403828,26.59434891,65.22795868,24.56086731
83,9.499765396,0.698843718,-0.514145732,14.51665688,60.83758926,27.31357765
84,9.869450569,0.608708262,-0.173013315,2.177165031,59.54117203,29.89738083
85,9.861197472,0.212223679,0.146980882,-4.733059406,57.98488617,28.1755619
86,9.612277985,-0.110734098,0.179110736,-2.16896987,56.22158813,25.2899456
87,9.323787689,-0.287229121,0.318286121,6.531782627,55.07567978,23.03556061
88,9.197369576,-0.619484186,0.43710494,12.08504295,52.83976364,19.49155617
89,9.277721405,-0.85008812,0.629072011,17.77605247,51.37498093,14.9865675
90,9.465371132,-0.727289975,0.46028477,23.11709404,49.23655319,11.17266178
91,9.468054771,-0.303838491,0.566931009,26.85808945,47.95401382,7.539666653
92,9.471223831,0.078935362,0.661714852,24.09618759,44.5526123,3.361351728
93,9.421403885,0.356810719,0.842132926,19.54232216,40.4994278,-1.263566732
94,9.316785812,0.503718317,0.829830408,16.5695343,35.06824112,-5.788866043
95,9.250558853,0.423398316,0.688971817,17.75437927,29.23507881,-10.11121464
96,9.153284073,0.146404326,0.737657309,21.70474815,22.034935,-12.92193317
97,9.165358543,0.086541854,0.77510345,27.36426353,16.8176918,-14.55225754
98,9.202301025,0.293509275,0.788792193,32.24725723,9.866033554,-14.98960209
99,9.490348816,0.592665017,0.943465233,31.74469376,9.441986084,-14.79729939
100,9.526873589,1.366618514,1.60449934,20.2853756,11.79044056,-14.30031872
101,9.018751144,1.838062525,2.498688698,5.613017082,9.824710846,-15.47182465
102,8.706374168,1.910481095,2.354798079,-8.913583755,6.439194679,-17.35734558
103,8.763695717,1.752402425,2.571438313,-14.2677412,4.676273346,-18.7264061
104,8.899881363,1.49098146,2.78932023,-10.91321278,3.255763531,-18.85200882
105,9.532158852,1.032759905,2.599117756,-14.59563637,-1.683545113,-18.10680962
106,10.29450321,0.393682599,3.139354229,-21.31554985,-2.772011757,-15.41704655
107,10.69661903,0.073107086,3.769464493,-21.29532051,4.23649025,-12.88921452
108,9.900483131,0.782304645,4.227869034,-15.09778881,12.96449471,-12.40924168
109,8.545264244,1.797359824,3.824705124,-10.9176321,15.18386459,-11.97473431
110,7.704782963,2.44402051,3.432834387,-10.04916,13.38345718,-7.955985546
111,8.006304741,2.858814001,3.116376877,-13.75460529,9.697683334,-5.912115574
112,8.703601837,2.930886269,2.844073296,-20.81025124,6.484392643,-9.098013878
113,9.416506767,2.623151064,3.053055525,-26.69138145,3.945687294,-13.51944542
114,9.858512878,2.049550772,2.946336269,-30.78046227,1.13417387,-18.59653664
115,9.598340988,1.755056024,2.300145864,-25.07888603,1.505469441,-23.08013916
116,9.240831375,1.746665239,2.026785612,-19.94557762,1.328791142,-22.50744629
117,9.775779724,1.929784536,2.185114145,-16.83081627,2.788281918,-20.1076622
118,10.47305202,2.138726711,2.192836285,-13.59632874,4.785498619,-18.33402061
119,10.73037243,2.113690376,2.099713564,-11.14045906,6.214559555,-15.79996586
120,10.69885254,1.988644481,1.859319091,-10.2026329,5.233910084,-14.63701725
121,10.6981287,2.30367732,1.294575334,-5.105915546,2.721185684,-16.83454704
122,10.95150661,3.280665159,0.897095025,-0.691037774,-0.048760224,-16.94571877
123,11.55381966,3.813470125,0.746313035,-2.386087418,-3.593163729,-15.2255373
124,12.16766834,3.458574295,0.844958127,-4.391909122,-6.700332642,-14.17686367
125,12.33011436,3.078368425,0.638112545,3.079520226,-7.093796253,-15.4635334
126,11.91289234,3.170010805,0.435316294,15.56702423,-8.434094429,-17.53407669
127,11.39544296,3.50549674,0.442341775,28.9408474,-11.15342522,-17.18770027
128,10.80396271,3.857154131,0.614676952,41.36711121,-13.73351097,-16.2094841
129,9.940237045,4.21154356,1.066142082,48.81481552,-18.8229866,-15.40328407
130,9.300535202,4.364515305,1.801464081,51.00048065,-27.04571533,-18.0525322
131,8.902519226,4.71987009,1.031985283,49.71630478,-30.32089424,-25.58620453
132,7.747985363,4.28768301,1.844819069,40.38370514,-27.51872444,-30.40710068
133,6.708041668,4.459926605,2.585202456,23.00593758,-30.48387146,-26.56584167
134,5.286362171,3.956874132,5.77226162,-16.07753372,-23.37012672,-18.61428833
135,2.251948357,2.435946941,3.112422466,-46.29912186,-11.49942875,-15.47445107
136,0.604269683,0.771257818,1.448638439,-44.31748581,13.05592155,-8.93791008
137,-0.151154473,-0.62482065,2.700342417,-38.60815811,24.84293938,0.883094013
138,0.774221301,-0.099419348,2.175696373,-52.1248703,33.85202789,8.609096527
139,0.976039231,0.909753859,1.270750046,-67.89460754,44.63492203,15.13758469
140,0.278872699,1.070275784,0.80939126,-81.25006866,48.5134697,21.12994766
141,-0.283213586,0.242704019,0.586272061,-83.43451691,53.0366478,24.07356453
142,0.113828413,-0.459284842,0.32966885,-72.34741211,60.6788559,19.6914959
143,0.987527311,-0.942020416,0.180016249,-68.51032257,63.30368805,16.5956707
144,1.548021913,-1.127842665,0.129308492,-62.56264877,65.39822388,16.70657539
145,1.421959996,-0.851795852,-0.736587524,-41.53497314,66.27036285,14.00709152
146,0.844868958,-0.780149758,-0.275803417,-29.22456932,66.19060516,9.955190659
147,0.168812886,-0.984674931,-0.373900443,-20.17057228,63.62104797,8.751113892
148,-0.30350849,-1.315122962,-0.472042024,-7.900678635,58.8355217,11.0399847
149,0.636242032,-1.568242311,1.147482157,-5.622694969,54.02264404,8.871860504
150,2.001715899,-0.321562022,0.619643092,6.495163918,66.87765503,4.881550789
151,0.599490285,0.764406681,0.556824625,17.6198101,68.27523804,4.33069706
152,0.043724604,1.86560607,1.736397982,11.02759171,62.04047394,10.77050114
153,2.365614653,2.645641804,2.367578506,4.114862442,60.33980942,10.44045067
154,4.596721649,1.571086407,2.907369375,-1.585253596,66.03243256,16.61400223
155,4.84318924,0.729107678,3.059553385,-11.62500763,63.58271027,22.8508606
156,4.816160679,0.249438211,4.188539982,-28.42809868,65.82176208,19.78856468
157,5.601183891,0.046109002,3.815104008,-13.98142624,68.83654785,14.26949024
158,4.964605808,-0.557303309,5.154587269,-5.285791874,74.13440704,13.21130753
159,4.895392895,0.750504553,5.394649506,-3.821315765,78.88050079,12.66256428
160,5.48353529,2.793506861,6.432433128,-20.10843086,72.54546356,7.358689785
161,8.16635704,-0.625715673,13.73716259,-35.50212479,63.80561829,13.08940697
162,16.48229218,-1.149693847,10.6925621,4.602437019,40.90365219,5.630883217
163,19.88085365,0.271950424,9.844298363,33.59326172,30.16985512,19.93237114
164,9.670893669,4.992745876,8.82568264,-33.31608582,17.74799538,23.9542923
165,11.31888008,-0.054166108,18.48057556,-19.74481583,-17.5324173,25.6492157
166,8.656710625,-8.348283768,17.53712463,41.41772461,-39.26288223,38.66477203
167,7.381391048,-0.04925669,13.23667908,-26.02465248,-49.94473648,14.52525139
168,7.212007046,-2.943415642,13.22394848,5.602422714,-52.12342072,-4.157577038
169,16.38363647,3.153581142,14.76188183,20.76390076,-39.41801071,5.122268677
170,5.850559711,0.87728852,14.66138363,-1.628338695,-47.16061783,29.50172234
171,8.822677612,-2.411389351,12.86534691,-4.781859398,-48.19459152,38.93107605
172,5.4766922,-4.238090992,13.35277367,5.010567188,-32.68771744,37.06657791
173,10.3052063,0.948541403,14.61072826,1.675063968,-24.32237816,22.18576622
174,15.88607407,1.046516538,13.06689358,22.07032967,-12.61436081,20.5026207
175,41.79754257,4.506093502,8.672772408,56.63772583,55.96749878,164.8368683
176,-6.050542831,-0.303335875,14.69880199,41.91769791,14.20271015,119.5738144
177,-18.10021973,-6.454061985,7.436585903,-72.70719147,-92.59593964,-17.65762901
178,0.265734613,-0.966035008,9.846309662,-3.944327593,-48.90659714,-25.68916702
179,10.8208952,-0.35016042,7.934676647,-8.978408813,-70.45594025,-31.16198349
180,16.45390511,0.085139059,7.863770485,-0.811274707,-113.571106,-13.7282238
181,14.17575359,-0.553415477,5.759792328,3.23908329,-87.73434448,-7.362181664
182,10.93513966,0.956206799,5.773462772,11.26523972,-66.82550812,-10.13095665
183,12.03557873,1.221703768,6.004283905,22.50471115,-87.16366577,-9.349655151
184,13.03772736,0.324934065,6.841924191,29.61172295,-68.68387604,-15.81897926
185,12.1379261,-1.007158995,7.177145481,24.15468597,-39.77370834,-10.39435005
186,10.53323364,-0.940635741,6.730829239,17.41777802,-38.62753677,-12.01969242
187,10.77589989,-0.315589607,4.554841042,39.68917847,-43.9227829,-17.42638016
188,10.9693718,0.933487773,4.367673397,73.22897339,-35.01600647,-14.20561123
189,9.544534683,2.128613234,4.235212326,37.18777466,-33.99201965,-12.14479256
190,8.434013367,2.823639154,4.445726395,6.514070511,-68.6558609,-22.22335434
191,11.15469933,3.783204079,5.288260937,-25.6598587,-53.99427414,-10.21585369
192,11.41804218,3.019636154,5.797551632,-51.35940933,-46.10517883,-10.49214554
193,10.90589046,1.40624845,5.232293129,-44.38116837,-55.22513962,-9.056089401
194,9.780387878,0.648655295,6.147074699,-34.06335068,-46.28946686,10.64639282
195,10.00717831,0.644849181,5.27609396,-35.99497604,-43.98808289,18.58704948
196,11.79166794,1.490686893,5.782522678,-55.30571747,-43.49238205,15.22028065
197,13.22041321,1.567432523,8.776583672,-84.38306427,-10.13498878,17.04857063
198,13.54379368,1.310639024,8.102909088,-85.80755615,-16.59254265,23.56550026
199,13.55619621,1.781316638,6.011381626,-64.93693542,-11.52327633,32.22618866
200,13.46722794,2.003768682,5.596817017,-59.29891205,-30.98657036,34.36629105
201,13.69268608,1.729249001,4.447031021,-60.84001923,-42.60643387,20.72109413
202,14.3850975,1.57794404,3.707458496,-43.29419327,-49.77698135,6.839286327
203,15.15229893,1.410542846,2.688510418,-31.03339577,-46.1101799,-1.073536038
204,15.76028061,1.23118341,2.511450529,-24.95693016,-41.16517258,-3.357589245
205,15.81790829,1.166410923,3.328496695,-39.45397568,-38.132267,-2.218179464
206,14.79230785,1.289431334,3.46304965,-68.55825043,-38.1247406,-7.366597176
207,14.48868084,1.977848649,2.750328541,-81.62290192,-41.61373138,-17.13213539
208,14.77518654,2.093337774,3.091137171,-90.54320526,-41.9479599,-12.5556078
209,14.42224598,1.22937572,2.698149443,-90.34647369,-42.42518616,-10.73678303
210,14.33103085,0.530690312,2.25761342,-94.14712524,-39.23313141,-16.48224449
211,13.87569046,0.008096445,2.376753807,-88.87329865,-47.9203186,-17.8379879
212,13.43563557,-0.283564568,1.803063512,-76.85225677,-50.00811005,-22.31497383
213,13.62695313,-0.231400684,2.145452738,-56.95211792,-45.99596024,-21.70740891
214,13.42912483,-0.068352893,2.179412127,-53.11880493,-38.99200821,-14.4210825
215,12.59705925,-0.041501433,1.915212631,-49.03419113,-35.14411545,-14.19567871
216,11.12604713,-0.314556032,1.987773538,-37.10173416,-24.6801815,-17.8708744
217,9.82941246,-0.863335311,1.944867492,-25.55042839,-26.64683533,-9.765909195
218,10.19334888,-0.903161526,1.410828233,-45.05578995,2.65430212,-10.28702641
219,9.73076725,-1.947965145,1.811484098,-82.91477203,-5.719900131,-12.7707653
220,10.43630219,-1.483991623,1.405456781,-121.9340286,4.072523594,-21.43544579
221,9.576690674,-0.760886908,0.439843237,-90.90724182,7.011303425,-16.07551956
222,9.34559536,-1.065528989,1.566833377,-80.2424469,20.7277832,-18.7268486
223,8.988056183,-0.924707353,1.77034843,-91.31735992,15.21882439,-23.2432251
224,9.257181168,-0.881025434,0.891849637,-96.42546082,1.114446759,-20.79265785
225,9.393612862,-0.850736976,1.036308646,-91.12798309,3.050463676,-19.7189827
226,9.294132233,-0.798707366,1.073955655,-93.92769623,4.634204388,-17.74060249
227,9.106001854,-1.020735383,0.631158531,-96.89968872,9.579517365,-16.31338501
228,9.264044762,-1.281095624,1.157410145,-91.78079224,13.73228359,-17.94672585
229,9.16742897,-1.250086904,0.878641963,-88.0019455,14.82949829,-17.04173851
230,8.945937157,-1.237207294,1.934716702,-88.98496246,8.820061684,-17.55169296
231,9.037851334,-1.047328234,1.673981071,-94.64102173,10.08997631,-18.74317551
232,9.048963547,-0.88026017,1.868360758,-94.81248474,12.6929493,-17.90001869
233,9.104658127,-0.943172455,1.995179176,-95.59291077,9.148156166,-15.74954414
234,9.197061539,-0.75996685,1.895905375,-93.36643219,5.16160202,-15.31773567
235,9.244506836,-0.674071372,1.954156876,-89.57711792,3.599067926,-17.02834892
236,9.281690598,-0.801329076,1.79738605,-89.03897858,3.390567064,-17.71717834
237,9.172433853,-0.610672534,1.753431082,-87.39066315,7.507627964,-18.77182388
238,8.960288048,-0.543850541,1.764735699,-82.55687714,12.94889164,-18.51055527
239,9.096800804,-0.427256763,1.881028414,-73.64195251,18.02051353,-17.41360092
240,9.285329819,-0.53805083,2.150823355,-68.02793884,20.41643906,-16.96731186
241,9.373963356,-0.642070293,2.313908815,-64.98609924,22.76848793,-17.85293388
242,9.180883408,-0.689643502,2.547894478,-60.43794632,26.27692032,-18.86293793
243,8.987267494,-0.743969798,2.754458904,-56.3732872,28.18557358,-18.58004379
244,8.826317787,-0.706079245,2.65625906,-52.44172668,34.8959465,-18.82727242
245,8.836921692,-0.560327768,2.620397568,-42.74826431,43.49713898,-18.27648544
246,9.082201958,-0.483461887,2.592856646,-32.77827454,51.41283798,-15.56703949
247,9.234036446,-0.197104707,2.529662609,-27.21680069,59.51612473,-11.98278141
248,9.09817791,0.247855484,2.639375925,-23.41014671,63.34743118,-9.326030731
249,8.806725502,0.544018269,3.155981064,-22.6354866,62.9202919,-8.959939957
250,8.468664169,0.654044628,3.700742245,-24.75728226,58.48996353,-10.80506039
251,8.443073273,0.655276358,3.805162907,-23.98384666,60.48081207,-11.32993031
252,8.58244133,0.643020093,3.895870924,-23.69323921,63.72389603,-9.805753708
253,8.638221741,0.586328149,4.027983189,-23.72343826,63.46854401,-7.612789154
254,8.481862068,0.493344188,4.163559914,-26.85065269,63.73302841,-6.237355232
255,8.149020195,0.403660715,4.210148335,-27.05479622,67.87749481,-6.24125433
256,7.987247944,0.310125232,4.293960571,-25.84484673,68.43636322,-5.873770237
257,8.05185318,0.301789582,4.290614128,-25.27435303,67.77709961,-4.640518188
258,8.190977097,0.24067454,4.257003307,-24.54161835,70.06902313,-4.090222359
259,8.283823013,0.328050971,4.291806698,-24.18050766,67.50170898,-4.564317703
260,8.375432014,0.444904447,4.32630825,-24.29540062,64.60118866,-7.09779644
261,8.435548782,0.394876361,4.283559799,-27.8211956,68.13079834,-10.16514778
262,8.091650009,0.520381391,4.105285645,-25.63043976,70.9332962,-11.21263885
263,7.62813139,0.417051911,4.287780285,-25.68112183,72.82901001,-9.308187485
264,7.408369541,-0.227826446,4.972696781,-29.08959198,67.23922729,-7.113768578
265,7.600392342,-0.994621098,5.407871723,-25.16516876,59.42941666,-7.065110683
266,7.495503426,-0.919481993,5.386451244,-13.13496876,56.96255112,-6.79619503
267,6.905676842,-0.314980417,5.492581367,-3.868491173,57.10033417,-5.808471203
268,6.19089365,0.300859511,5.815224171,-1.210518599,50.83768845,-5.06709671
269,5.933336258,0.816003084,6.167539597,-5.740624428,42.58015442,-4.958637714
270,5.987020016,1.162889838,6.333904743,-12.00336647,32.43979645,-4.761869431
271,6.187718868,1.383546948,6.432812691,-15.73236275,20.75508308,-3.809059143
272,6.505344391,1.148133039,6.514609337,-22.14582634,11.85189915,-3.009857416
273,6.658499718,0.493702292,6.622801781,-24.99361038,7.982132912,-1.02718699
274,6.65092802,-0.066998154,6.485145569,-25.44557571,7.873651028,0.118094049
275,6.707796574,-0.387439936,6.443334579,-25.3607235,8.43628788,1.319012642
276,6.804959774,-0.558222771,6.440071583,-24.62952232,8.3852911,3.354804039
277,6.8191185,-0.619495928,6.525413036,-22.58704376,7.542092323,5.687357426
278,6.86900425,-0.650408268,6.475493431,-19.01035309,7.515207767,6.859482288
279,6.868684769,-0.708941579,6.341733932,-14.90003204,9.441056252,6.699533939
280,6.865572929,-0.517182231,6.392011166,-10.66604137,11.52180767,5.159530163
281,6.727896214,-0.23447898,6.623288631,-10.18131733,9.161886215,3.418055534
282,6.765947819,-0.337458998,6.967721939,-12.84666252,5.251945496,1.818099737
283,7.025300026,-0.504935265,6.956426144,-14.97925377,3.70917654,1.28287065
284,7.038699627,-0.462000608,6.915164948,-18.00498199,3.296799898,2.114964724
285,6.965500832,-0.454844892,7.021265507,-20.35979462,1.798302412,3.676305056
286,6.792771339,-0.679007471,7.155237198,-22.57989311,2.298333883,3.701963425
287,6.792045593,-0.697853327,7.458133221,-23.69125748,2.942066431,3.782766819
288,6.893520355,-0.209284872,7.604427338,-23.2093029,-1.465907454,5.474155426
289,6.967504978,0.300757706,7.73582983,-25.38219643,-4.4017272,8.761756897
290,7.215405464,0.260180831,7.529347897,-27.89188004,-6.733548164,8.834532738
291,7.23261261,-0.214089185,7.244238853,-31.68042564,-8.208799362,3.211991787
292,7.056735516,-0.861154258,7.171335697,-35.09265518,-4.681746006,0.072676338
293,6.952667713,-1.073389649,6.878009796,-31.98107719,-3.192634344,1.328298569
294,6.901695728,-0.876863539,6.638238907,-30.73248482,-1.88157928,4.28365469
295,6.934070587,-0.998809814,6.66663599,-34.88667297,-1.743745923,6.363150597
296,6.964038372,-1.562800884,6.729794025,-39.07390976,-1.224165678,5.426803589
297,7.035270214,-2.028020382,6.701679707,-35.64516449,-0.617691398,2.383342981
298,6.999628544,-1.861039042,6.677335262,-27.45814705,1.933033824,-0.166476578
299,6.847130299,-0.920517445,6.61858511,-20.08855629,2.81841898,-1.513840675
300,6.8592453,-0.517360985,6.692793846,-19.72864342,2.455678463,-1.467635274
301,6.743803024,-0.856703699,6.785971165,-24.40042686,-1.556679249,-1.705834985
302,6.626672745,-1.311063647,6.749536514,-26.09927559,-3.674932003,-3.770467281
303,6.579621315,-1.700274944,6.897734165,-27.8537674,-4.930728436,-7.29101038
304,6.673080444,-2.169112921,6.908931732,-27.77179337,-4.823027134,-11.04673958
305,6.875168324,-2.262147665,6.755468845,-22.97804642,-5.750566006,-13.7022028
306,7.174819469,-1.88741076,6.763868809,-18.13358688,-8.004486084,-15.60468769
307,7.502959251,-1.618804455,6.803507805,-18.54451561,-12.3731575,-16.58511162
308,7.565927982,-1.420864701,6.733953953,-19.25398827,-14.96332073,-18.50665665
309,7.490122795,-1.064650297,6.613880157,-20.701231,-17.40026665,-21.56810951
310,7.456868172,-0.848295271,6.402569771,-24.00340462,-20.59026337,-23.38331604
311,7.565899849,-1.169864893,6.484432697,-29.37385368,-23.5394268,-24.17567635
312,7.76278019,-1.598214865,6.513268948,-34.34451675,-27.41450691,-26.00593948
313,8.216547012,-1.96580863,6.562563896,-37.24272919,-29.11531067,-29.08314133
314,8.784119606,-2.128355503,6.575425625,-37.33259583,-29.13573265,-32.75455093
315,8.843009949,-1.952944279,6.317575455,-33.37755203,-30.42717743,-34.38245392
316,8.720766068,-1.638319612,5.789758205,-29.56361961,-33.5545311,-31.78349686
317,8.408511162,-0.893110335,5.609137535,-27.61483955,-31.76652718,-30.33466339
318,8.224909782,-0.443653792,5.796024323,-28.08981133,-34.55969238,-27.98571777
319,8.305381775,-0.676030099,6.272626877,-33.51690674,-35.29589081,-25.1587925
320,8.460522652,-1.48628819,6.348891258,-37.14118195,-30.24534416,-22.87369156
321,8.866538048,-2.151529789,6.041656971,-30.06192017,-25.23687744,-19.70458794
322,9.462618828,-2.432637453,5.965482712,-17.76717567,-18.74297142,-15.3930254
323,9.820788383,-2.28244853,5.836324692,-7.903089046,-12.70549965,-11.20660591
324,9.677556038,-2.163793087,6.144334316,-2.134025574,-8.48536396,-8.812746048
325,9.336778641,-1.940539241,6.288848877,0.454696059,-2.101906538,-9.015570641
326,8.928609848,-1.44219923,6.079782486,3.532997608,3.888194561,-9.5007267
327,9.042629242,-1.631949782,6.421882629,-1.591471195,4.287009716,-7.867571354
328,9.239039421,-1.697051525,5.866841316,0.100677162,9.454580307,-6.375080109
329,9.554221153,-2.1347754,6.019090176,9.92345047,22.4507637,-5.366679192
330,9.575753212,-2.382773638,6.246309757,16.40925598,32.10031128,-4.718611717
331,9.15922451,-1.959316373,6.58686018,16.88759041,36.30938339,-1.014345407
332,8.866648674,-1.347534657,6.546943665,13.34107494,38.85476685,1.169245958
333,8.68211937,-1.104157209,6.395578384,7.982748032,44.35593414,0.890527904
334,8.45357132,-1.131069779,6.418968678,5.638302326,47.06607056,0.310780555
335,8.472430229,-1.296263099,6.541218758,5.576932907,46.28398132,0.906113744
336,8.630736351,-1.235404968,6.651596069,8.175513268,45.54692459,0.54663676
337,8.763918877,-1.221137524,6.971116543,14.79165268,42.65752411,1.383102059
338,8.616365433,-1.178333521,6.452951908,18.79003525,37.73101044,1.196972013
339,8.826031685,-0.747600436,6.303081512,22.3673954,35.51899719,2.494891167
340,8.748617172,-0.384100407,6.237971783,19.55042648,36.40023041,4.250613213
341,8.414254189,0.110690981,6.18428421,16.99257278,37.51831818,6.514904499
342,8.168363571,0.409653306,6.426455975,16.52597427,35.20676041,8.94938755
343,8.15758419,0.23805204,6.767023563,10.46304321,30.7869339,11.31847191
344,8.146792412,-0.105223119,7.172543526,4.851836205,27.10044479,12.68684959
345,8.104588509,-0.721671104,6.983158588,6.600879192,22.37519836,16.37073135
346,8.316102028,-1.135354042,6.708199501,17.0094738,18.56950951,18.97859573
347,8.489159584,-0.928956151,6.870069981,30.50229073,16.39554405,20.07172775
348,8.243156433,-0.443600863,6.855808258,38.47358704,16.72149849,19.2754097
349,7.717376232,-0.478765547,7.125284672,39.80162048,13.2249155,19.21365929
350,7.325640202,-0.406280994,7.005698204,42.04734039,10.08556175,20.94399834
351,7.179237366,-0.212091878,6.806188583,46.16765213,6.151083946,24.28884315
352,7.467400551,-0.148400515,6.799174786,46.49787521,4.939648151,29.43361855
353,7.245092869,-0.231617734,6.943766594,50.826828,3.055742741,31.95603371
354,7.02618742,-0.321784854,6.900662899,53.13240051,2.977536678,32.9807663
355,6.84565258,-0.165245339,6.872278214,54.15184021,4.308200836,33.12427902
356,6.94308424,-0.088580891,6.871623993,51.43334198,9.273367882,35.17119598
357,6.466410637,-0.054798584,6.757388592,52.05809021,11.39504528,36.4442749
358,6.025308132,0.09024772,6.833660126,48.38605881,13.19085693,37.78501129
359,5.858242035,0.003964361,6.744045734,45.17158127,13.08132744,37.54816818
360,5.980689049,0.026856592,6.820116997,39.63074875,13.05465984,35.11584091
361,5.951486111,-0.179038987,6.776154518,34.01771545,17.09360504,32.75510025
362,5.468156815,-0.230279624,6.996069431,31.21770477,24.90325546,31.57749748
363,5.166519165,-0.103627756,7.180841446,31.56540871,28.35701561,33.36375809
364,4.686254978,-0.158296794,6.53371048,43.95625687,27.44524193,29.88166809
365,4.805047989,-0.497207284,6.650573254,44.73097992,29.04647636,23.59218788
366,5.257226944,-0.507767439,6.52289629,41.84707642,39.80599976,20.79742241
367,5.129026413,-0.293152303,6.446442604,44.83396149,40.98682022,21.06775475
368,4.508379936,-0.164187461,6.36107254,50.48666,42.67416763,20.25498962
369,4.350099564,0.091849059,6.13684988,49.47360992,50.04537201,18.5321331
370,4.455580711,0.325604886,6.236104012,46.27319717,54.74905014,17.78103065
371,4.077129364,0.215923026,6.783340454,43.58612442,54.28805542,15.62809277
372,4.332612991,-0.077227801,6.461380482,41.34037018,56.6977272,10.82755756
373,4.113894939,0.07717815,6.984447956,39.14225769,57.14688492,5.726097584
374,3.987519026,0.437986106,7.184051037,40.7060051,63.73133469,2.820610762
375,4.655930042,1.134318948,7.965837479,34.76621628,72.03852844,1.073177099
376,4.729882717,1.816837668,8.067373276,28.7911644,76.42077637,2.727349281
377,3.830057144,1.912714362,8.047369957,16.61053276,78.5743866,3.239670277
378,3.768477201,1.561732769,8.191289902,7.675013542,77.14426422,2.197968245
379,3.521602154,1.100768089,8.422450066,-0.620735586,73.54753113,3.341912746
380,3.659039259,1.36348176,8.679649353,-2.799340248,76.55181885,3.125518322
381,3.418207407,1.559573054,8.593069077,1.582161784,77.48332977,4.302723408
382,2.576048851,1.274436712,9.562520027,-6.175887585,72.52503967,4.152786255
383,2.468542576,1.100346208,9.564500809,-10.57195377,76.48802948,4.03142786
384,2.671155214,0.8224262,9.94315052,-11.29873085,86.56520081,3.559383392
385,2.654365063,0.553371549,9.957630157,-11.47370434,91.19662476,4.007488728
386,2.442113876,0.311399549,10.31477547,-9.06887722,92.82672119,3.603017092
387,1.923640728,0.031631805,10.26153183,-7.39484787,94.96914673,4.34019804
388,2.197291136,-0.088052757,10.80616951,-4.2132864,98.49004364,5.031531334
389,1.857924223,0.101207063,10.8083353,-4.164431572,105.9228134,4.817472935
390,1.756496549,0.427398205,10.84695339,-0.504553735,111.0851212,3.389648914
391,1.880268931,0.254919231,11.12058544,-2.441202641,111.5971222,3.785897017
392,1.791052103,0.022109609,10.93745232,-7.941454411,111.8354034,3.894628048
393,1.598883271,0.120267138,10.71543789,-6.398387909,109.4289856,2.776886702
394,1.091436386,0.697551906,10.60678101,1.41864574,104.3912964,0.754265308
395,0.62462759,1.388495922,10.68143368,8.581360817,99.20396423,-0.653473258
396,0.00817357,1.699497819,10.68607998,11.9682579,93.82189941,-3.726323843
397,-0.030397311,2.009379387,9.042486191,20.71278381,78.46520996,-7.811000347
398,0.247929692,1.886380672,10.12308788,13.75506592,51.92418671,-8.574696541
399,0.464984149,1.644634604,11.39251995,-6.153374672,40.86688614,-8.864931107
400,1.443850279,1.04031229,11.43806362,-28.40627289,42.56243515,-6.715174675
401,1.811925173,0.399106562,11.26138878,-40.77294922,40.686203,-0.664196253
402,1.968856215,0.360243797,13.10039616,-54.03323364,41.73596954,-0.057680756
403,2.440095901,0.817905307,13.65955639,-61.88440323,52.50447464,-6.29323864
404,2.416807652,0.947246075,11.51456642,-65.30923462,42.00506592,-11.37049866
405,2.077176809,0.506285846,9.234090805,-43.43463135,30.19461632,-15.0795908
406,2.425966024,-0.106782541,8.794311523,-15.07547283,23.62510872,-20.23049736
407,2.895884037,-0.462446362,9.606455803,-13.69260025,18.29953957,-20.6817131
408,2.980605364,-0.468101025,10.02665234,-11.05826283,18.43258476,-18.02048111
409,2.798024178,-0.74775809,10.40825748,-5.409750938,21.70568085,-18.68723297
410,2.915286779,-0.508668005,11.36201763,-18.74469376,17.66773224,-17.8437252
411,3.148543596,0.034899879,12.17028618,-33.73260498,16.29241562,-18.0277195
412,3.499007463,0.407491893,11.88515663,-24.75359154,6.015240669,-19.36291695
413,4.112953663,-0.321052313,9.755879402,-2.266119957,-0.474456906,-23.3444252
414,4.85004425,-0.496994197,10.03237247,-3.064690351,-6.719723225,-28.21971512
415,4.895792961,-0.77457726,10.6538496,2.860933065,-4.614773273,-26.62961006
416,4.796188831,-0.326482952,11.44157314,8.313663483,-11.85724735,-24.92950821
417,4.241721153,-0.621459901,9.707867622,9.066817284,-17.00381851,-24.73631668
418,1.890738487,-0.772082925,9.539477348,19.78134918,-17.67198753,-25.41329765
419,-2.624433756,-2.393148422,7.991281986,39.70606995,-36.85147476,-31.23434258
420,-8.921360016,-3.457268715,6.797823906,84.68032837,-55.58615112,-10.49348831
421,-4.539699554,-3.098983288,8.905528069,67.98768616,-60.4588356,-0.485598981
422,0.449571133,0.40718472,10.26457024,24.22433853,-6.994328499,-10.8658514
423,-1.923594594,1.971631646,10.78293228,21.36110687,-18.47176743,30.3138752
424,-5.699355602,0.158581331,10.76724815,20.59264946,-55.9791832,27.53163338
425,-4.144459248,0.562740982,11.57791042,16.65087128,-65.81739807,1.441096544
426,-2.727463484,-0.063032471,11.26049328,12.15404224,-55.9044342,-15.65027523
427,-2.296294451,-0.693962753,11.05238342,14.78320313,-57.78442383,-12.74272156
428,-0.084549375,-1.113240719,10.92209339,22.85486031,-63.47403336,-4.275615692
429,-0.167641848,-1.257183075,11.00979996,28.22494698,-55.39775085,-2.283275604
430,-0.606966794,-1.452590942,11.38675404,25.66698074,-65.59942627,-5.583269596
431,-1.753587246,-1.065475225,11.27915382,34.18272781,-63.85886002,-0.522656024
432,-1.701774716,-0.24776502,10.89944553,36.75405121,-72.51557922,1.380319834
433,-0.752555668,0.413001806,10.7742033,41.30756378,-88.4473877,6.727460384
434,-0.041567549,0.401954025,11.10622025,56.57710266,-101.5859756,3.16319108
435,0.629722953,0.286933929,10.40422058,59.26562119,-103.8094711,5.284063816
436,0.966950893,0.639791906,10.54455948,61.38707733,-113.6419144,7.284840584
437,0.930199087,0.8021698,11.56055355,53.50623322,-130.7341461,7.055738926
438,1.360846996,0.733792663,12.37652779,42.91230392,-159.5904999,10.60294724
439,2.317234993,1.204888105,12.39138508,38.36754227,-177.4790192,8.12238121
440,3.52617836,2.024435043,12.42608547,43.6191597,-160.077774,3.053951263
441,4.973351002,2.85516572,13.01272011,40.59664536,-130.0663147,5.92356205
442,5.842360973,3.25637126,13.74264526,22.8042717,-107.7966156,10.81843281
443,5.867950916,3.116437197,14.10160065,2.711368799,-82.66287231,9.998860359
444,5.575515747,3.063393116,13.55041122,-5.307806015,-42.95362854,5.597647667
445,5.341323853,2.653255939,12.6163578,-7.888507366,-1.91006732,2.419523239
446,5.150954723,2.163652658,11.73971462,-8.517297745,31.32692909,1.138924122
447,5.029285908,1.35959816,11.21626759,-6.51567173,55.00218201,3.066814423
448,4.467176914,0.529400527,10.65862179,-10.19021893,86.17510986,3.730121374
449,4.287981033,0.156660825,10.16549492,-18.29092789,124.1176834,2.786783934
450,4.42775631,0.419958949,9.362599373,-31.85356712,156.4191895,1.215438008
451,4.507827759,1.343350887,8.683485985,-45.19065475,190.7458954,-2.190361738
452,4.786152363,2.012375355,8.686427116,-59.11096573,211.2965698,-3.504789591
453,5.099646568,1.790359974,9.649289131,-84.29196167,201.9751129,-2.138022423
454,5.819949627,1.774805188,6.697635651,-76.62347412,204.2054291,0.936442077
455,5.537139416,1.209654927,5.351073742,-74.98563385,203.9653168,6.683979511
456,2.346786737,0.593952358,4.352419853,-72.31311798,152.298233,16.33090782
457,-2.124604225,1.115378141,1.489256024,-15.29679966,98.7766037,14.15382385
458,-4.727851391,0.940299273,2.094699383,43.34545898,74.3755722,7.924271107
459,-7.141939163,0.316494703,6.832801342,20.29509735,46.32250595,2.668495893
460,-6.032914639,-0.4258129,8.521769524,-2.89081049,37.05495834,1.511733055
461,-3.521773338,0.011387035,9.505506516,-24.37518883,41.76517105,1.926033139
462,-2.43520689,0.162593991,9.252043724,-26.16425133,27.9987011,5.532685757
463,-1.887393951,-0.621052384,7.969434738,-21.44240189,6.530219078,-1.497410655
464,-1.287555933,0.287454277,8.324892044,0.088229373,0.076882936,-9.194359779
465,-2.250140905,0.707805753,8.638860703,11.50170422,-9.004840851,-10.42886925
466,-3.43892312,0.674766541,9.406309128,5.082403183,-23.58323288,-7.321437836
467,-3.199273825,0.393591791,11.17288303,-7.556001663,-29.53412819,-6.174641132
468,-2.347139835,1.047071338,11.18189144,-7.27842617,-40.31657028,-11.22941399
469,-1.677280188,0.491014183,10.74056053,-7.893089771,-47.19014359,-13.92849445
470,-1.220296383,-1.012865663,10.51257229,-9.315391541,-55.89863586,-11.80397606
471,-1.225554228,-0.492838413,10.59507751,-11.60625076,-64.46413422,-11.3791256
472,-1.337243557,-0.233384177,10.18749332,-15.21623802,-75.80388641,-11.82794952
473,-0.788797975,-0.521896958,10.08163166,-16.22402763,-81.84670258,-5.797315121
474,-0.639206946,-0.704675257,10.35462856,-8.50551033,-90.75765228,1.509496808
475,-0.381945372,-0.548149645,10.70637608,1.827558041,-96.73073578,1.666218519
476,0.428814232,-0.135063708,11.19289207,13.95819855,-100.5654831,-0.116151407
477,0.879323423,0.097326562,11.61486244,29.78848457,-104.5251465,2.103639364
478,1.258442879,-0.22785221,11.2364645,44.09087753,-106.2563095,7.794752121
479,1.385021448,-0.620268703,11.14710522,56.71533585,-107.7536163,12.23841953
480,1.04077208,0.431061745,11.40273762,62.66142654,-112.3284607,13.13726521
481,1.166525126,1.019300461,12.42333031,57.42983627,-133.2753143,10.78780365
482,1.750343204,1.412760377,13.57426643,48.74581909,-163.2514191,10.17742538
483,3.728769302,1.755628228,14.09850407,52.07961273,-163.6862183,11.01610279
484,6.105453968,2.465225935,14.18798828,48.24845886,-118.921875,11.52393627
485,6.764709473,2.532807827,14.63835716,28.14905739,-67.89019775,9.041898727
486,5.46911335,1.993409872,13.7865448,18.46157837,7.333778381,-4.668305397
487,4.750172615,0.84439224,13.17381096,16.77482796,90.42836761,-16.89621735
488,3.915263653,-0.597978055,11.61910629,15.23269653,105.1228256,-10.76060963
489,3.538796902,0.055683061,10.73115158,10.44206142,86.06560516,0.068579823
490,3.685925245,1.830415606,10.8663578,-1.070193529,99.23510742,3.238224268
491,4.118433952,3.338227272,10.42172527,-32.58662033,138.3322144,2.707326889
492,4.959721565,3.389336824,9.134135246,-58.16693115,166.6790466,1.872045636
493,5.670302391,2.4680655,8.948561668,-67.143013,172.0944519,-2.153954506
494,6.350261688,1.161346912,8.287315369,-79.69137573,154.8837128,-3.652492046
495,6.635344505,0.04826916,7.128917694,-96.75821686,167.7544861,-5.431181431
496,5.5582757,-0.35486877,6.885499001,-109.3352432,152.9192963,4.338019371
497,3.084551334,0.162456214,6.59115696,-107.0438309,125.1308823,13.13976479
498,0.502072394,0.458766788,4.76593256,-102.0762939,113.4805984,13.23721313
499,-2.902229309,-0.026450682,3.34850359,-88.18019867,116.1912308,10.02796078
500,-5.832536697,-1.864156842,5.371727467,-66.35388184,95.57748413,11.12069798
501,-6.308046341,-2.621483326,8.955453873,-68.89361572,66.81853485,8.016479492
502,-5.203295231,-0.835940242,10.1715126,-47.99677277,22.56416321,11.50818729
503,-2.745023489,-0.620735109,10.81396675,-31.65065384,10.81563187,1.80935216
504,-2.058441401,-1.093584776,9.127305031,-19.2624836,-48.92705917,-16.04293442
505,-2.511085033,-0.431111932,9.515673637,4.352823734,-110.6895752,-21.76372719
506,-2.143423557,-0.645972669,10.63823605,24.77646446,-148.5675812,-13.76403046
507,-0.745148122,-2.296757221,13.46897697,31.76943398,-163.082428,-13.51115131
508,-1.508977294,-1.368617296,13.63125038,63.21333313,-160.1377716,-21.53440094
509,-1.763223886,-2.06501627,12.75622559,100.7069855,-160.3587189,-37.68524933
510,2.442001581,-0.684217453,13.56653404,133.6707764,-164.5291748,-40.07801437
511,6.067663193,1.940349221,15.21797562,129.3970947,-172.0444794,-16.69382095
512,6.671089172,2.395329952,15.46460533,104.2314529,-207.0205688,10.08725166
513,3.389109612,0.555944085,13.58128452,69.26907349,-246.7238159,20.0790329
514,2.771018267,-0.768432617,11.45828629,57.15843201,-247.9184875,15.27441025
515,4.108486176,-0.302848399,9.63177681,52.85480499,-218.2380981,2.350281
516,5.581028461,1.250878453,8.843019485,62.19792175,-153.2136536,-11.35401154
517,6.508293152,1.133989573,8.919934273,62.99482346,-97.77157593,-10.94904709
518,6.520101547,1.314293265,8.486599922,64.03582764,-81.16707611,-2.611134052
519,6.158098698,1.503163934,8.383225441,56.78829956,-76.3791275,6.370613575
520,4.851583958,0.822949648,7.27043438,36.40503311,-60.7986145,11.14275646
521,5.189996719,0.308700264,7.951319695,-8.860639572,-56.81192398,8.901102066
522,2.16676712,-0.605444789,8.000009537,-9.740326881,-47.79418564,19.01133919
523,3.603505611,0.038750086,7.687700272,5.886590958,-55.45397568,-22.78789139
524,5.937698364,1.903077245,6.928135872,-22.20890808,-14.29904747,-2.222630501
525,1.336333871,-0.448735058,10.64849854,-5.427975178,-44.07736969,31.2487793
526,-0.415599793,-1.006688118,8.949323654,-56.76714706,-15.08343792,11.8441906
527,1.973852515,2.049201727,-1.687019825,-31.48597717,-11.67215061,-22.6665802
528,3.351706982,0.980634391,1.758045077,20.15283966,-5.771936893,-12.83033848
529,2.6790905,1.028920174,4.473332882,16.20122337,-6.32174921,27.04595947
530,3.527867317,1.312096357,4.821387291,-10.76818657,-6.649354935,3.767546892
531,1.392342687,-0.48466444,5.629676819,7.441768646,-12.33869648,-2.661660671
532,1.86841619,-0.843416274,5.894030571,19.9506588,-20.55384636,3.814126253
533,0.985141575,-0.427641988,6.881244659,26.66164017,-24.39060974,10.03977394
534,0.630155981,0.146287888,7.508401871,21.98697662,-32.55908203,2.395229816
535,2.058149099,1.464841723,7.715668201,25.97995949,-30.29098129,1.123232126
536,4.454042435,2.413151741,8.306346893,31.92734718,-24.56472015,12.70392704
537,6.489163399,3.56375885,9.759200096,17.10523033,-39.02770996,16.89530754
538,7.224656105,2.770815849,11.82472992,-7.658447742,-64.92803192,17.21891975
539,9.459126472,1.425262451,11.33204174,-5.772664547,-69.8914566,5.800858498
540,9.461065292,-0.062084287,11.50739765,25.03055191,-56.04984283,-2.355106115
541,7.18572855,-0.1493797,10.13194275,22.8991909,-36.81225967,0.592944264
542,10.67037868,1.696424723,8.384943962,24.73892021,27.87677383,-11.9610157
543,15.87926292,3.864231348,7.312866688,23.43948746,47.45120239,-23.57448769
544,12.64098644,2.463624954,5.840078831,2.976044893,128.5869446,-14.36829376
545,7.308503628,1.149145722,4.567229271,-0.610988259,214.8791199,-12.59684753
546,-0.257805467,0.618030608,5.13011694,-13.95385742,278.2644043,-25.5550251
547,0.179646194,0.053086925,9.786413193,-31.34585953,311.5975647,-14.85205841
548,5.165608883,1.453763604,10.97198963,-57.90234375,327.3650513,-10.7690382
549,7.673585415,2.534698963,9.76261425,-89.65293884,337.4996948,-13.42668056
550,8.24957943,3.195193291,8.961610794,-121.5630646,331.1825562,-7.159291744
551,7.177799225,1.840246677,7.065708637,-126.4302979,282.5474243,-2.577565908
552,6.603905201,1.164436579,6.248866081,-115.0796585,241.679306,-0.848013818
553,6.759845257,-0.547064722,7.886847019,-119.0336304,188.821991,5.382621765
554,3.697763681,-1.23228991,4.975138664,-126.0627518,150.2250519,3.376698494
555,-2.241682291,-1.053049445,0.454028815,-58.45948792,129.8033905,-5.455787182
556,-9.039089203,-2.092157364,2.886008501,-14.6008749,103.3136139,0.728497982
557,-13.39177322,-2.006105423,9.072526932,-47.92625809,41.74064636,6.723807335
558,-9.743512154,-3.502233982,8.56276226,-45.31750488,34.5353775,2.22500062
559,-5.887000561,-2.241147757,9.573974609,-34.27760315,16.55381203,7.291199684
560,-2.777632952,-1.745492935,10.70331001,-38.3832283,15.09034824,0.230387613
561,-1.450698733,-2.032987595,10.57487488,-36.38668442,14.45210361,-6.777208805
562,-2.832065344,-2.085331678,10.00678253,-15.06823254,4.996587276,-4.871437073
563,-5.174165249,-1.216137052,11.31061554,-11.35235119,0.673864245,-8.865060806
564,-0.46325478,1.122069001,12.36858749,-57.36503983,-47.12137985,-5.660466194
565,-4.41911459,1.345242739,10.77902317,-20.0952816,-39.4002037,-11.19859409
566,-3.565032482,-2.87140274,10.59935665,-15.4207859,-66.49219513,-25.6532917
567,-2.841348171,-4.253675461,11.37661743,-11.50269794,-98.05810547,-30.08032417
568,-2.865766287,-4.431930542,10.52316666,41.35795975,-105.3078537,-20.60172081
569,1.564802051,-4.874581814,12.25858021,60.8029747,-128.3093719,-14.59702778
570,1.213629842,-4.265482426,13.2031374,64.01010895,-125.3194962,-16.62154961
571,1.488909125,-3.107388258,11.65699196,88.42357635,-119.9780655,-8.568594933
572,1.925916195,-0.495766044,9.623721123,99.39118958,-111.9887619,-14.68622494
573,1.599892974,0.063498572,10.12811089,98.18336487,-120.2507248,-13.55063057
574,1.743189216,0.210680157,11.58789253,85.3470993,-136.9732971,-13.87022114
575,1.982939243,0.702845752,13.52222347,65.557724,-170.383667,-15.24246025
576,3.563227415,1.717143655,15.34082985,60.52370834,-231.8803864,8.524909973
577,5.248361588,2.572443485,16.12888718,56.39694595,-230.3852539,29.56144905
578,6.272742271,2.48747921,15.04433155,63.65703583,-140.3714752,20.51875877
579,6.71517849,1.120366931,15.70034218,73.85069275,-66.29696655,-2.372202158
580,6.715294361,1.123405933,14.6097393,73.09779358,-24.96022034,-6.436620235
581,5.857776165,0.350618511,13.56184864,31.27380753,-22.44827461,4.902079582
582,5.655411243,0.122197688,11.15229797,1.087401628,-21.44180107,1.22649169
583,7.085288048,-0.043139219,12.20092869,-29.08462334,6.961197853,-10.30348015
584,7.365252018,0.433725715,11.84318638,-42.02561569,53.37263489,-14.18444347
585,7.354146481,1.28559339,10.01537323,-11.68590736,98.9234848,-27.32746696
586,8.493989944,1.164759755,7.654550552,21.72138405,158.454361,-28.91932869
587,12.90305138,1.091804266,7.244193077,34.88586044,170.0234222,-10.17032433
588,11.45715427,0.065342225,6.401238441,-17.50600624,153.2427063,-20.00988388
589,4.796283722,0.025829535,9.336693764,-38.57397079,85.89161682,-26.09996223
590,1.455955744,-0.781460941,15.56206417,-90.48314667,-17.67832565,10.28126144
591,-4.114420414,-0.980107069,-12.02742577,-46.04178238,-33.64884567,3.801288128
592,-4.872609615,2.077897787,0.77273792,33.21804428,-35.10411072,-3.725718021
593,-5.684821129,2.380695105,7.108972073,-14.88443565,-81.98886871,19.49223328
594,-2.599487066,-0.144486383,7.275447845,-39.46384811,-142.207016,-4.48633194
595,3.328509331,-0.095233232,5.158129215,13.17984676,-155.7117462,9.433523178
596,0.036904037,-1.907418966,10.83504105,38.72645569,-183.0200043,0.999863803
597,3.195456505,0.178992063,13.46380711,25.59778976,-172.7162781,-31.57485199
598,8.45378685,2.010238171,12.23610783,12.47484875,-122.9535675,9.687677383
599,3.576077461,-0.156044483,9.843074799,35.81477737,-129.666626,37.76977158
600,1.442774057,1.833098054,11.38944912,33.82302094,-128.6619873,15.16616726
601,3.874428034,0.743458092,9.319917679,22.22310448,-148.0343475,-20.68190956
602,2.892219067,-1.294865608,7.200370789,41.4007225,-105.3874893,-3.477939367
603,2.950923681,0.1053361,8.559422493,37.06074524,-80.60431671,14.03321648
604,2.720126867,1.152673244,8.412537575,12.78778362,-75.67614746,3.605068684
605,4.553498745,0.330945641,8.09992218,-2.196764946,-72.19834137,6.133208752
606,3.398545742,-0.231379345,7.435270786,5.042494774,-65.83274841,4.855954647
607,3.402890682,0.105706215,8.204985619,10.3381443,-60.28538895,0.055189688
608,3.337558746,0.263479292,8.180574417,8.466633797,-55.62801361,-1.519528508
609,3.469484329,0.538387179,8.476016998,11.31909847,-48.22640228,0.385890663
610,4.360628128,2.153769255,8.495279312,14.29016113,-61.66433334,5.986061096
611,4.800776482,3.140446901,9.242665291,12.48150826,-74.38745117,10.32374859
612,6.002457619,2.381507397,9.114471436,0.028475372,-66.67074585,10.90651703
613,6.744787693,0.262427926,9.416231155,-16.12693787,-52.78744507,14.02122498
614,7.629430294,-1.790230989,9.715744019,-27.19104767,-25.78386688,12.16967678
615,8.69738102,-0.495471865,8.42159462,-23.55349731,-3.917944193,0.543201506
616,8.551783562,0.516728878,8.547323227,-13.87941074,15.35380268,-10.35327911
617,9.607001305,2.01283288,7.424286842,1.815747499,43.43902969,-3.138620377
618,10.35660267,2.910140514,7.443550587,-2.988972664,56.98109818,6.325110912
619,12.7315979,3.057384968,7.367735863,-7.882169247,90.88588715,3.394159794
620,12.74164867,1.11610353,5.802303314,-13.51191711,161.7968903,-1.475172281
621,9.488157272,-0.976222694,4.374646664,-0.952571809,237.4195709,0.149037883
622,5.697535038,-1.581049323,6.291459084,5.93610096,270.2947998,2.732074499
623,2.571640491,0.301772356,8.329169273,-4.83787775,273.6734924,4.026823044
624,3.17655468,2.619227171,6.532456398,-19.88614464,318.2693481,-2.802713633
625,6.378976822,2.682043076,5.56333971,-46.20877838,358.1061707,-7.444411755
626,7.146746159,1.734581828,4.924990177,-57.49959183,330.5700073,-7.423465252
627,6.579659462,0.839832962,5.635342121,-40.29103851,288.7172241,-17.65074539
628,5.64503336,0.688454151,6.931130409,-52.33288193,224.2269592,-22.21466827
629,2.757031918,-0.391874224,7.212991238,-92.66558075,152.5346985,-6.863086224
630,-2.24123168,-2.021936417,6.006016731,-92.83028412,107.1938019,11.00273228
631,-7.458089352,-0.826607764,3.77177,-27.89335251,89.26017761,20.7325592
632,-10.39088345,-1.465149045,7.542710304,-9.307071686,62.14924622,14.1890192
633,-8.687785149,-1.560385585,7.717405319,-27.29934883,39.82754135,6.630170345
634,-5.405414104,-1.79984355,8.798325539,-20.80256653,15.63779831,9.500517845
635,-2.32777977,-1.51218462,10.99621391,-23.62406158,5.804222107,7.466336727
636,-1.018565416,-1.390049696,11.25888634,-6.461663246,-5.610182285,0.402407676
637,-2.052024126,-0.602579892,9.904946327,7.966383457,-25.9643898,0.388475209
638,-2.896421194,0.381130129,10.56516361,18.12314415,-36.20168304,2.695438385
639,-6.22786665,0.33223635,12.26617622,-18.21407509,-40.49247742,1.007975578
640,-0.096737273,-0.222020954,13.29739189,-28.20762634,-39.29855728,-4.084708214
641,-0.870355248,-1.712029576,11.67589569,-1.928022027,-43.57437134,-1.39807868
642,-1.328902721,-3.480656385,13.50631332,-22.53062439,-57.8163147,7.938349724
643,-1.529336691,-2.866876364,12.49465942,-0.658983409,-75.67909241,7.9719491
644,-1.429526687,-2.117789745,13.14055252,43.73722458,-97.05770874,-9.224784851
645,-0.211291298,-0.987069666,12.80794239,54.9624176,-117.6165543,-20.71489334
646,1.392373085,-0.057391882,12.35342121,67.8992691,-139.4969025,-13.95338535
647,2.882469416,0.489239633,13.22343349,79.19434357,-158.1508179,1.712839723
648,4.484193325,0.385461688,14.69634151,108.987793,-185.747818,11.60092545
649,4.898004532,0.797099829,16.22549057,114.8629913,-183.337265,11.54849339
650,5.13896513,1.197950482,16.06276321,115.0094986,-120.7290421,-8.516956329
651,4.29888773,1.442204714,13.95695114,110.1145935,-0.018710967,-37.0017662
652,3.462643862,0.820569038,12.17908478,65.21715546,129.5366364,-31.2087059
653,2.178834915,1.079361439,9.515393257,-0.878908455,123.3392715,-0.113457538
654,1.052363038,3.048117876,8.964827538,-30.11151123,108.8870621,10.36789322
655,2.730119467,3.792815208,8.993561745,-35.12664413,138.4319611,-0.560522974
656,5.38062048,2.435569286,7.603763103,-69.03551483,183.9785767,-11.17451
657,6.709364891,0.634825528,6.327513695,-98.39293671,196.7913513,-19.3968277
658,7.034329414,-0.40383172,8.586001396,-121.8627625,168.1423035,-27.11327934
659,5.327102661,-0.185473397,9.519861221,-127.1370468,116.720108,-21.92051506
660,-2.626395226,-2.614438772,7.633415699,-107.1826935,47.92481232,-23.71143341
661,-5.763190746,1.878652096,-1.688582063,51.57296753,-112.5194244,-10.61786842
662,-2.239977837,1.393623233,10.69216156,79.29729462,-104.5006943,0.778148234
663,-3.482825518,0.733568668,16.68912125,-38.59910202,-109.5783615,12.85359764
664,-5.288913727,-1.065976858,12.61119175,-35.22260284,-183.7696381,-10.21134377
665,-3.224542618,-2.43458581,10.62776661,20.68173409,-200.9950256,-10.33533096
666,-0.885283828,-1.645079017,12.47703934,49.0437355,-203.9381561,-15.48331165
667,3.234065056,-0.671325147,12.75639629,54.36412811,-164.2649994,-19.70012283
668,5.715481281,-0.42514959,9.10634613,64.80593872,-177.0485687,7.162138939
669,6.65297699,1.420075893,8.662023544,85.25558472,-173.473053,11.5433197
670,5.881456375,2.15105319,10.9756279,62.53883743,-160.9686432,-11.29006481
671,5.649383068,1.105611563,11.23531342,28.95514679,-176.6397705,7.198834896
672,5.315991879,-0.464857608,10.18250084,2.00082016,-187.9732208,13.35148335
673,4.881432056,0.463531494,7.969898224,30.82838631,-167.5953064,-9.06315136
674,5.858745098,2.277681828,8.670426369,22.21471786,-120.2372284,2.113786459
675,3.814174652,2.274152994,8.156455994,-9.78800106,-108.1801987,28.64656639
676,1.640566587,1.282542348,7.098347664,-35.22031784,-90.03092194,12.83006859
677,5.763688564,0.886817276,7.618357658,-36.454422,-82.68130493,7.005423069
678,3.749431849,-1.135854125,7.920285225,-34.67547226,-93.94308472,33.59109879
679,1.118066788,-2.482815504,10.06449509,-35.28139877,-86.59441376,21.98041344
680,3.911167145,-0.405393898,9.755954742,9.184020996,-66.66140747,0.285387635
681,6.13095665,0.468857914,6.687830925,-6.026480198,-11.48881435,-5.856782913
682,3.749462128,1.155758381,1.628334522,-0.742922366,-11.03503227,5.971302986
683,3.292780638,0.632027864,3.930114985,-25.71378517,-10.17882156,3.883594036
684,2.482152224,-0.845099211,6.041778564,-29.36881638,-14.19643211,8.364519119
685,2.81891942,-1.145241022,5.738250256,-24.80083847,-20.33587456,12.85608387
686,3.073871613,-0.885173261,6.735004425,-10.11685371,-18.61909485,7.343845844
687,3.228994846,-0.770237923,8.07934761,5.763003349,-22.01018906,8.72399044
688,3.711377859,-0.474950314,7.868266106,14.58281612,-21.59469032,11.35115147
689,5.128634453,0.373637676,8.344813347,26.44636154,-18.60333252,9.514034271
690,6.356029034,0.530270934,9.135444641,19.24389648,-32.10089111,4.31880331
691,6.821561813,-0.713806987,9.196081161,20.30544662,-45.71176147,2.714182854
692,8.02645874,-0.46997571,9.401597023,44.92152786,-31.33358192,0.120022394
693,8.403712273,0.643286109,10.2346077,62.29613495,-29.13246727,1.6369735
694,8.372459412,1.609954715,9.233822823,65.01873016,-18.44329071,8.448365211
695,8.170645714,3.000360012,8.136642456,55.46069336,13.59572601,5.785015583
696,8.860138893,3.706339598,7.434373379,44.10702896,62.59155273,-11.34300327
697,11.08843327,4.17848587,8.623729706,37.78390121,85.00631714,-22.34293556
698,12.98205376,2.571440935,8.528628349,13.3773489,108.8730087,-25.68346405
699,10.61201859,0.095408641,6.657246113,-1.335602403,151.7718658,-24.87736702
700,8.689306259,-0.276844919,5.507370472,2.251234293,203.9295197,-18.40559959
701,1.570672631,-0.162366316,6.940971375,-25.74318314,237.9830475,-0.752307296
702,1.79343152,0.217618376,7.65704298,-60.14463043,270.1246338,-1.636183977
703,7.028698921,0.077013433,8.170983315,-66.48654938,298.1029358,-9.231359482
704,9.816027641,0.388680577,8.411445618,-64.44528961,311.1632996,-10.83603477
705,8.837994576,0.668464303,7.915977001,-71.62775421,286.6464539,-3.064503431
706,6.395658493,0.223899782,7.154136181,-71.60982513,254.7322845,-2.403999567
707,4.891600609,-0.19704628,7.056269646,-75.90258789,214.7007751,-6.477612019
708,3.747477055,-2.160182238,7.145380497,-74.0459137,157.1517334,-5.287421227
709,-0.729529619,-2.954071045,6.588537216,-51.85004044,133.5340729,-7.632478714
710,-5.10625124,-0.073366895,5.971432686,-3.396564007,128.5683746,-2.632672071
711,-8.414767265,0.653081298,8.675102234,-5.39517355,112.9670181,-0.396079779
712,-6.931967258,-0.255367488,12.68441391,-67.0565567,81.86680603,-10.58144474
713,-6.037767887,-2.7365942,11.04483414,-74.15835571,66.72087097,-4.472966671
714,-3.137359142,-3.78760767,7.844372272,-36.67066574,55.86671829,-2.818645
715,-1.503638983,-2.137188673,8.581673622,-19.593647,47.5494957,-1.588290453
716,-2.553813696,-0.759138584,10.9357357,3.643819809,47.49719238,0.717507005
717,-3.530483723,-0.402583808,9.432186127,5.395815849,2.36584568,-4.615300655
718,-3.440623283,0.249926165,10.47695827,38.32151413,2.100336075,-8.210233688
719,-2.024454594,0.484070957,9.146772385,52.94003296,-49.9840126,3.041046619
720,-3.420145512,-0.623855889,11.46157455,66.00924683,-56.84045029,-12.54294682
721,-3.174381018,-0.701952875,12.3079195,35.74974823,-90.66442871,-11.653162
722,-3.056933165,-1.464292765,11.40397835,18.75430298,-120.541008,2.013372898
723,-2.049993992,-1.658172488,10.56118298,21.86942291,-126.8940735,6.413930416
724,0.676549256,-1.044174433,10.14164448,28.86642265,-126.9053802,2.22903347
725,1.652029872,-0.695224881,10.98482513,34.78232956,-134.4865265,1.089977741
726,2.532669306,-0.018334761,11.81061172,52.95900726,-142.6285553,3.257400751
727,2.575764894,-0.223956108,12.45882034,55.25222397,-140.8903503,5.703538418
728,2.885522842,-0.458235264,12.14339352,67.11978149,-138.9484863,-1.466648817
729,3.342100859,0.194610775,11.6357832,92.37909698,-153.6363983,-3.872630119
730,3.918231487,1.779174328,15.43743992,109.1927032,-219.9984589,12.79849911
731,4.818664074,3.634493828,17.60224152,92.83130646,-270.8479919,27.0087471
732,7.719081402,5.326848984,14.85169601,70.2894516,-172.0937958,27.96585846
733,6.553364754,2.861448288,14.89944744,23.57770729,-99.69953918,22.91497993
734,6.647640228,1.135768652,12.99608612,2.941734552,-34.51322937,11.4031086
735,6.639671803,1.203686953,13.29089832,-14.61023617,-6.803796768,7.040092945
736,6.789912701,2.456455231,12.01428986,-16.08464241,-14.7043438,9.94861412
737,6.360892773,1.904244304,10.49111176,-30.9557972,13.57443428,6.627729416
738,4.919913292,0.687997997,9.695275307,-21.02352142,56.67520142,-5.341469288
739,6.609117508,0.931559026,7.694682598,5.718987942,119.0700302,-17.56702232
740,12.8714323,0.366036743,6.569373131,-16.35449028,196.8833466,-17.45200539
741,13.0411272,0.087108843,6.874096394,-47.1534729,195.8347473,-18.70286369
742,6.933990002,-0.219463885,6.591785431,-72.72893524,194.0603485,-35.82003784
743,5.455780029,-0.607165933,7.947901249,-120.9301147,164.4403992,-39.01549149
744,-0.131340474,-2.746974945,-1.019386292,-72.76312256,64.478302,-29.23881149
745,-3.843675137,-0.294539958,-6.648084641,67.50240326,24.09622192,-11.69989872
746,-5.119053841,1.129792452,6.308303833,10.8260231,-8.55045414,-9.002761841
747,-0.264118642,3.020975113,7.033156872,-55.7224617,-70.86560822,-9.238826752
748,-1.612824917,-0.877342939,6.320458412,-31.81691742,-166.8553467,37.29465866
749,-7.025217533,-2.405344009,9.050168991,-5.65409708,-222.1038208,-4.330561638
750,-2.007465839,-0.126588151,10.8665781,18.26599503,-205.8864594,-4.87185955
751,1.984387875,-0.368536562,14.55021191,16.04516602,-161.5663452,6.629855633
752,7.496684551,1.275523305,10.90650463,19.88681984,-154.8635712,0.712773085
753,5.503838062,-0.777775168,8.964809418,68.37139893,-152.8355255,7.355319023
754,6.206071854,-0.675084352,10.68752003,78.67602539,-161.7327423,12.00709629
755,3.827334642,-0.273980975,8.934678078,64.65013123,-152.3241119,8.939184189
756,0.487537563,-0.674108803,6.920882702,44.04945755,-131.2131195,-2.429976702
757,0.152920365,-0.514985561,7.76161623,25.2788353,-131.990036,-4.172555447
758,5.365829945,1.173382878,9.458098412,16.67152596,-101.101181,-0.420121431
759,5.706655979,2.640252113,7.996261597,13.19061279,-87.15440369,19.3451519
760,4.907831669,1.037817359,8.374508858,18.70108795,-76.44139862,6.854596138
761,5.00837326,0.645753622,9.826268196,13.05889416,-80.9855957,-2.43832922
762,4.625181675,-0.052086648,9.717744827,-1.339586854,-79.3780365,3.239162922
763,4.066915035,1.265638471,8.808683395,3.59670639,-69.43527985,10.63805389
764,4.647862911,2.164889812,8.933162689,6.275363445,-48.83445358,5.225106239
765,6.299359322,1.818780661,8.480237961,-2.404219389,-28.00382423,5.168215275
766,7.89073801,1.384080768,9.357713699,-19.76528168,-18.55437279,10.69501114
767,8.57598114,0.822014809,9.126101494,-42.59884262,12.53322792,8.301916122
768,8.171180725,0.33417213,7.00952673,-53.6576004,42.47636414,4.418936253
769,8.668311119,0.623185575,6.59918499,-48.14889145,73.69864655,1.726247072
770,7.880371571,1.033017755,7.980905533,-49.04481888,86.04924011,2.712190628
771,8.634413719,0.633367717,9.675093651,-55.98542404,92.60644531,6.366486073
772,8.166849136,0.111580789,8.877496719,-51.31740952,105.4148788,7.827474594
773,8.609883308,-0.347926408,10.07558632,-9.404726028,119.0474777,1.714913964
774,9.607778549,0.188850015,9.400043488,26.89525986,165.2706146,4.876442432
775,6.143331051,1.25520575,9.048350334,47.14235306,184.536972,3.984071493
776,2.537282467,1.035980821,9.244495392,42.39376068,212.6726532,2.684982538
777,2.641696453,0.624638081,11.2948103,2.262007475,244.4054871,-3.204516172
778,4.1060853,0.8581599,10.23550415,-26.40476418,266.2280273,-3.934169054
779,7.514674187,1.687556505,8.403982162,-28.74005318,295.660614,-6.462059021
780,9.154596329,2.478291035,8.220759392,-30.62009048,253.3935699,-2.754938602
781,7.819468498,1.465226412,6.842856884,-26.11495209,212.4004822,-7.648553371
782,5.839612961,0.384910911,6.914039135,-40.43216324,180.5771942,-9.460125923
783,3.944785595,-1.236597657,7.39589119,-69.08682251,129.0047913,3.013484955
784,1.052950382,-2.477767706,6.671731472,-77.29303741,99.75585938,11.50208473
785,-3.154196024,-0.88469094,2.822974443,-30.8924408,91.27529907,9.797607422
786,-7.56491375,0.268767208,3.539466143,24.3006649,81.7366333,11.41526985
787,-9.889493942,-0.050525051,8.254426003,-3.684731722,27.76795006,11.36574173
788,-7.536947727,-0.384398758,8.04193306,-5.192806244,23.03171158,7.742228508
789,-3.435794592,-0.274601072,8.380039215,-17.97686577,-4.116723061,7.804810524
790,-0.794406056,-1.14489305,9.917696953,-9.396354675,-2.579250813,0.770167708
791,-0.752606571,-0.6094684,9.402359009,-0.146235794,-10.70914936,-6.703628063
792,-3.612950087,-0.10031227,9.409158707,6.409719944,-39.2850647,-11.8524065
793,-1.662114739,0.3457461,10.60583782,-14.1654377,-38.47346878,4.087670326
794,-1.972540975,-0.219857141,13.914464,-4.761722565,-48.63661957,-0.426992893
795,-0.064538874,0.457057834,12.78926563,-7.633352757,-57.23675537,-6.244603157
796,-1.459254146,-1.747022033,11.19750309,4.83220911,-57.34888458,-12.48184967
797,-1.75072968,-2.068837404,11.98473549,7.708892345,-87.72138977,-8.955631256
798,-2.447623014,-1.619624853,12.11526871,28.48982048,-105.6966019,-8.733488083
799,-2.086519241,-1.459514141,12.46345043,55.63442612,-120.9024811,-11.80165386
800,-0.7878021,-1.288680077,10.99701309,63.61790466,-119.3132172,-13.04118824
801,3.987129211,-1.027351856,11.80379772,56.65085602,-127.7583771,-12.14678764
802,5.191484451,-0.502939582,12.09823799,55.87747955,-122.8917542,-3.43862319
803,4.230006695,-0.141392261,13.74409389,83.38864899,-143.6048889,1.301104307
804,3.517436266,1.429006696,16.24208641,103.2049179,-186.4973145,-2.84958744
805,3.799470901,3.005469799,16.30174637,130.7663727,-152.8222046,-18.64210892
806,5.182353973,3.521914005,14.1814003,151.9889526,-82.30506134,-36.3251152
807,5.599302769,1.659706712,11.85859394,133.2371521,48.83227921,-41.55035782
808,4.918653965,1.037653327,10.25922012,42.19107437,143.4025726,-18.9656601
809,2.034696579,2.995158195,8.950018883,-28.96696854,121.0682297,2.925712347
810,2.407549858,3.567395449,8.908506393,-30.95373154,123.4117126,-4.970889091
811,4.414457321,3.064710617,8.833414078,-42.16849518,179.7445068,-15.5190506
812,6.850216866,2.621581793,7.256074905,-68.73838043,226.2864838,-18.53840446
813,9.12408638,2.013195753,7.411907673,-119.6440735,228.9450989,-9.846323013
814,9.329280853,1.534298062,5.569693089,-136.7823181,220.2458496,-13.46827793
815,5.593182564,0.545448422,4.064455986,-124.4234161,198.5319214,-26.30270958
816,0.076270066,1.154178143,5.508305073,-44.95172119,113.0179977,-10.0333662
817,0.500496686,-0.738335133,5.47635746,-93.42215729,77.32828522,-0.550214887
818,-6.949336529,-0.902470648,2.09368825,-49.78288651,-5.927164555,-3.954879284
819,-9.224988937,-0.627621591,9.451238632,41.26483917,-57.4118042,-5.874921322
820,-6.368225574,1.000479102,17.15461159,-59.98360443,-118.7295074,-15.57437038
821,-6.05033493,2.131920576,10.74910164,-30.64299202,-180.4512024,-33.5628891
822,-3.587487698,-1.159160614,13.67769051,-5.396303177,-210.8101349,-7.784703732
823,0.423904538,-4.479627609,14.71342182,12.79651833,-191.0466919,-21.63968468
824,4.4013834,-3.583438396,12.4851408,51.0919342,-183.5418091,-6.422553539
825,4.602697372,-1.002015948,11.09141922,95.55502319,-193.2762451,17.93323898
826,3.13882947,2.028094053,11.28300571,82.25583649,-205.9019928,-8.75727272
827,4.115190029,2.815396547,12.06836605,51.87714767,-212.7262421,-8.99284935
828,3.24431181,1.215863824,10.83975983,33.23770523,-242.8256073,10.30267239
829,4.462722778,0.881090462,9.909234047,22.27963829,-237.3411255,10.8039217
830,6.848644257,1.766608596,8.75716114,30.57068443,-206.3488007,-1.603331804
831,6.792058945,2.113295078,8.91400528,25.06889725,-145.2115631,13.05999374
832,5.704609871,2.751890659,9.569247246,-5.087244987,-109.9514084,26.15611839
833,3.135887861,0.051153515,9.202234268,-24.11883736,-107.4459229,34.90296555
834,2.126839399,-0.143158808,7.665568352,-38.48306656,-100.3643341,6.151621342
835,5.631288052,0.395841151,7.736823559,-43.8044281,-103.6886444,10.81996346
836,1.796029568,-1.932866573,8.473709106,-15.76239014,-80.16366577,16.30071068
837,3.798858643,-1.484924912,6.225172043,-12.87796211,-61.17543793,-3.706080675
838,4.283824444,0.032222871,4.762208939,-2.525539398,-19.89546967,-14.64522648
839,4.426824093,0.726094127,4.59508276,2.250044346,-5.989902973,6.235906124
840,3.596257448,0.686429918,4.775955677,-13.12609673,-4.9757061,5.955604553
841,2.626064777,0.378843963,5.883543491,-22.77860641,-20.02807426,-6.286057472
842,2.946561575,-0.503402889,6.021119595,-13.17644978,-35.54805374,3.350132465
843,2.111824036,-1.467544913,7.394896984,9.61210537,-42.11095047,11.66486263
844,2.685017824,-1.932343364,6.996394157,28.00598335,-33.60365677,2.827814579
845,4.206783295,-1.054257512,8.623256683,52.97460938,-23.92326927,-1.207275271
846,4.952696323,0.843725502,9.42415905,58.80141449,-27.69917679,2.213219643
847,5.436003208,1.904698253,9.100814819,49.46320343,-35.80005646,-2.504583597
848,6.058269024,1.977532387,10.09083366,35.31338501,-48.22648239,-6.565143108
849,7.568173885,1.134749651,9.767150879,36.0739975,-58.77364349,-2.720870018
850,8.456572533,0.176484615,10.71058846,55.36642075,-53.85761261,1.259832025
851,7.37426281,0.365289509,9.039340019,67.56700134,-25.54349709,-2.87600708
852,8.41615963,1.510596633,8.940562248,62.87774658,14.96247768,-7.89128828
853,10.82939816,2.591785192,8.483028412,39.34292984,50.74650192,-15.64900875
854,12.37724209,3.984909296,8.376168251,16.93138885,94.57750702,-17.38083458
855,11.43555737,4.966414452,7.426808357,-9.025400162,112.4202271,-9.718574524
856,9.120622635,3.225740433,7.398676395,-35.50138855,151.7012482,-8.884367943
857,9.175070763,1.211833835,7.451714516,-23.9564209,196.5787354,-16.24765396
858,5.98323822,-0.267809927,8.411606789,-2.916030407,225.4229889,-12.21340752
859,2.967853308,-0.344851881,8.902317047,-38.42149734,265.2732239,5.08349371
860,7.818537712,-0.304496497,8.439535141,-50.32431793,291.4129944,11.65003014
861,11.56299019,1.061270237,8.431172371,-61.18150711,304.100708,-0.495645821
862,11.20436478,2.794543743,6.582624435,-89.1919632,295.5838623,-0.45963347
863,6.960108757,2.81380415,4.353738785,-93.02906036,286.4505005,-1.473585606
864,4.784687042,2.294112921,4.564589977,-88.38781738,260.6417847,-5.098820686
865,4.257013321,-0.507511973,6.200675488,-99.21498108,206.4595795,0.06752757
866,2.461556435,-2.902747393,4.89428997,-83.85584259,184.2625427,3.848268747
867,-1.385647297,-2.040666103,3.568781137,-26.54431725,160.6245575,2.759597063
868,-6.059254646,1.061349273,4.012604713,8.986123085,128.149704,7.035757065
869,-9.851709366,2.042900562,6.99059391,-18.3360424,82.77780914,16.15744019
870,-10.30210114,-0.312570572,11.47765064,-61.58835602,38.18207169,14.11316204
871,-6.685286045,-2.61784482,9.367070198,-89.69625854,42.35360718,9.839232445
872,-3.836922646,-1.370128632,8.096193314,-36.02080154,25.6219883,15.60545063
873,-1.776891112,-1.895976543,10.27727318,-68.14303589,40.02265549,-0.136204928
874,-4.009712219,-0.243396357,10.13286781,-15.69896126,27.99889565,-5.857819557
875,-3.467407942,-0.715624988,8.94526577,-5.994931221,24.51320076,-12.18553829
876,-0.793282747,0.337333947,14.11924458,1.402791858,-44.57587051,-6.048705578
877,-4.155373573,0.725443959,10.18053436,54.24694061,-17.79928398,1.795317173
878,-2.17490077,-0.52648741,10.20944786,50.12441254,-41.30067062,-14.31421185
879,-2.798683643,-1.962014437,10.97793007,48.01124954,-107.78582,-10.58346748
880,-3.672314405,-2.41849637,10.60634327,37.25551605,-124.6963882,-7.908734322
881,-2.687484741,-1.816748738,10.18234634,30.32617378,-142.5077209,-2.619158506
882,-0.64697516,-1.654356122,9.987448692,30.5376606,-151.0663757,-4.243860722
883,1.054766774,-2.383398771,10.98360443,39.62561798,-151.7950745,5.821977615
884,3.507026434,-1.545738101,11.87152958,57.16274261,-141.0539093,9.624794006
885,4.083241463,-0.719185174,12.27270031,67.11454773,-133.5260468,-2.775149584
886,3.141679049,0.195652306,11.67101955,77.86470032,-138.7102356,-13.42764759
887,2.977731228,2.260082722,11.96619892,87.16149139,-154.824295,-6.632180214
888,2.763005733,3.412209988,14.96797371,84.49005127,-211.7249298,10.86754227
889,1.500997782,3.160474777,17.01574135,80.82659149,-258.2843018,27.32957077
890,4.422591209,2.798156261,15.97274208,77.59017181,-204.0053406,16.96549606
891,8.411711693,3.379890919,15.54163361,77.14208984,-110.1489716,16.78984451
892,8.467686653,1.498318434,17.27654839,88.88011932,-70.29889679,31.87654495
893,6.146677017,1.469264865,15.44215965,54.37329865,-53.95321274,25.99113846
894,4.913755894,2.302420855,11.6469698,12.46295452,-24.9504776,23.99521637
895,4.64192915,2.462005854,10.37408543,-20.73116493,29.75992393,20.53365707
896,5.807657719,1.823452115,11.59533787,-48.63073349,57.11893463,13.96762085
897,7.715364933,2.052324533,10.1432209,-57.54459,102.0630264,5.269620895
898,9.802454948,1.514339924,7.970068455,-66.15798187,157.261673,-2.246201515
899,11.20165634,0.963420749,7.787136078,-70.64131927,164.8686371,-17.87470436
900,9.675257683,1.59514451,7.370966911,-51.01091385,142.2241821,-18.4868679
901,10.48367786,1.044552684,6.696662426,-59.53248215,142.7055969,0.500668049
902,7.99384737,0.001366749,2.922539234,-94.19593811,209.7995148,-11.36056042
903,1.702955723,-1.418674469,1.491235733,-90.05489349,176.9129486,-25.48510933
904,-1.422697067,-1.290267944,-3.741187572,-12.93654156,23.77011299,-21.88217354
905,-2.705826521,0.120455958,3.052416325,3.072117567,-61.1507988,-24.63261032
906,-5.032935619,0.512454033,4.469738483,-23.45747185,-111.9794693,-15.54116154
907,-3.709339619,-0.108585067,6.265747547,-31.21019173,-175.203537,1.07620585
908,-3.722711086,-2.270951033,6.356900215,-3.244595766,-216.6161804,22.07012558
909,-2.437710762,-3.377920628,11.37349892,20.95838737,-228.2710114,-22.71861076
910,4.327476978,-1.90791738,14.66860771,2.290762901,-159.6262665,-8.768240929
911,8.3051548,0.863667607,14.10505199,1.66770196,-135.9219971,17.69223404
912,3.386734724,-0.468527436,10.11571121,44.53799438,-151.5631104,9.666260719
913,4.22983551,-0.023814887,9.702443123,64.22033691,-165.7743683,-5.43392992
914,0.847539842,0.929478526,8.020048141,62.14381409,-162.5391846,6.426996708
915,0.627507091,0.137583643,6.938188076,49.76718521,-154.9657745,3.878118753
916,2.695314169,0.1491348,8.108717918,13.80667305,-136.8599548,4.427290916
917,6.87508297,1.329335213,10.18748856,-10.02107143,-109.3718719,16.83562851
918,7.096120834,1.455622554,9.052350044,-11.55004597,-83.27304077,28.16365051
919,5.570636272,1.124634266,8.412893295,-7.442724705,-75.93569183,19.1377449
920,3.684077501,-0.555410326,7.769371033,5.333173752,-71.07294464,10.81215
921,1.834799051,-1.626768589,7.557394981,20.24030495,-58.84792709,4.015204906
922,3.462456465,-0.605710506,7.495105743,22.70296669,-40.75291824,6.40718174
923,5.495773315,1.28314054,8.101283073,16.80840683,-40.78274536,14.20505905
924,6.315592289,1.924988866,9.254205704,12.7233429,-42.64788818,16.57633018
925,6.240279675,1.431807041,9.630752563,-11.60190678,-39.35813522,13.06065464
926,6.648526192,0.615142822,9.180921555,-25.12519073,-20.94708824,9.493590355
927,7.210279465,-0.112627268,9.366840363,-34.66249847,1.859105825,3.859542608
928,7.791803837,-0.631503224,8.938169479,-43.91942596,18.3472023,-0.738452077
929,9.528435707,-0.566227615,8.545269012,-30.73197174,47.92985916,0.539640129
930,9.704522133,-0.652545273,9.067077637,-7.309483051,61.46559525,3.078163147
931,9.918905258,1.15444386,8.152776718,-0.487274438,83.60858917,6.980478764
932,10.66561508,1.823733091,8.966556549,14.96190739,107.1474915,9.989815712
933,10.47016144,1.383231282,8.441306114,5.874036312,138.9649658,12.80569267
934,10.61872292,0.3468934,6.62775135,3.766022444,182.3767395,11.17211533
935,7.744637966,-1.230745673,6.648110867,20.12700462,227.8636475,12.36945629
936,3.090163231,-0.817430377,9.48279953,7.989789963,248.9011688,-4.74121666
937,3.646921396,2.039990425,10.14930153,-19.79065514,257.2135925,-18.32454681
938,6.699546814,2.491393089,7.472406864,-56.59088135,295.4631958,-18.0358448
939,8.598103523,0.099225327,5.967596531,-76.54707336,319.4350281,-8.184054375
940,7.846545696,-2.64390707,5.934951782,-63.7202301,281.64151,-0.531222641
941,5.929555416,-2.269184589,5.524060249,-31.05294609,257.9649658,-11.20554543
942,4.270535469,-1.370720148,7.300344467,-40.01525116,212.8843384,-10.72100544
943,2.4109447,-2.366758585,7.384408951,-58.71023178,152.708374,1.213484287
944,-0.981827855,-2.417511463,5.057144642,-46.31995773,112.4637604,5.489958763
945,-5.473359108,-0.296202272,3.387759686,3.036495686,95.19676208,1.231779933
946,-10.34977913,0.052044861,6.11753273,23.12476158,63.09673691,6.128864765
947,-9.512698174,-1.345075488,8.44839859,-9.384169579,13.61972713,3.865402222
948,-6.329652786,-1.571475148,6.488690376,-10.25067043,21.79009056,2.977078676
949,-3.613160372,-1.935388803,9.072382927,-28.20532799,-5.907295227,13.44062519
950,-0.85466224,-1.879635334,9.787908554,-13.73949528,-1.518360376,2.199159384
951,-2.481438398,-0.698136151,9.604656219,4.684669495,-12.15015697,-9.815057755
952,-4.61166811,-0.310556859,10.50320625,-43.08965683,-64.69400024,-24.86211777
953,-2.711203575,2.369460583,12.69695759,59.40150833,-34.82801437,-8.371569633
954,-0.979888499,0.487350166,15.38593102,-23.54372025,-59.27596664,-7.284734726
955,-0.29657647,-2.730747223,10.86313629,-26.69450378,-78.78036499,8.777023315
956,-2.01578021,-3.729395628,11.34212971,-4.955773354,-102.121727,6.269900322
957,-2.578590155,-3.550450325,12.59147358,6.512108803,-147.8263855,-5.901870728
958,-1.306467533,-3.235650301,11.13273621,37.68199158,-150.1393127,-20.7233448
959,0.146039501,-2.754870653,9.963510513,59.71247864,-132.9883423,-28.37898254
960,4.483823776,-2.466413736,13.2964592,35.04807281,-167.3618774,-9.365336418
961,3.958251476,-1.817850351,11.93183899,70.44545746,-136.4488983,-9.656801224
962,3.84319067,-0.313888699,15.09319973,100.8936844,-147.9957428,-9.348856926
963,4.053906918,1.558011055,16.45189857,119.1914978,-188.5360565,3.933129549
964,5.112476349,0.74649477,16.84696198,127.6636124,-167.9735565,-9.358455658
965,6.577884674,1.771022677,14.80338573,133.0053406,-92.69026184,-32.17376328
966,6.105190754,0.817909122,11.80357265,108.2489014,6.691653728,-29.267313
967,4.791106701,-0.886691093,9.599181175,36.34662628,63.76251984,-6.91130352
968,1.917393327,1.070003271,8.791419983,-2.684029579,66.16330719,11.78086281
969,1.490060806,2.732817173,8.494862556,9.840209961,112.6907883,1.002955317
970,4.259681702,2.708299398,8.385164261,-1.463960528,166.0477753,-15.67961121
971,8.604909897,3.117371082,7.753633976,-60.96313477,223.9828796,-17.79382896
972,7.53967905,0.66774261,7.396139145,-71.82110596,260.745575,-1.903789997
973,6.789003849,-0.926704288,7.156814575,-72.98090363,231.2610779,-10.42274857
974,7.499803543,-0.317517787,6.136224747,-66.29965973,194.0662689,-27.88184929
975,6.335023403,-1.020179629,5.82408762,-41.65603256,169.8872223,-21.03017807
976,1.037732959,-1.526917815,9.12166214,-52.7087822,121.8205795,-28.13776779
977,-4.861944675,0.20728597,8.481970787,-55.56222534,-14.57821274,-45.68259811
978,-7.739815235,4.033732891,4.452121258,-28.02779961,-73.20539093,-39.05737686
979,-6.683677673,-0.947369576,13.90595341,-62.7167511,-168.6842651,-10.84596062
980,-6.734597683,-0.594044089,9.405218124,-42.24611664,-234.3157349,-7.781152248
981,-3.702979088,-2.182630539,9.867794037,23.06403351,-263.7840576,-3.004376173
982,-3.583739281,-2.873018742,11.78205204,35.28785324,-238.0347137,5.369026184
983,5.051804066,-4.008492947,12.80519295,26.1291275,-179.5281982,-42.18503571
984,10.01213646,-1.83857429,10.91233826,81.31656647,-171.3383179,-27.08625793
985,7.968134403,0.363720238,10.74535942,124.9858627,-176.9335327,-6.117671013
986,4.288770199,2.782505035,13.68472004,119.1955719,-196.8026123,-6.764577389
987,5.471183777,3.466703653,12.943367,62.66960144,-195.289093,4.071197987
988,4.237701893,0.770195365,10.66612244,24.42893219,-206.0717773,19.87708855
989,4.806396961,2.400612116,8.457924843,43.86897278,-192.6443329,1.509109259
990,4.89788723,2.131581306,8.534099579,43.58044052,-147.8002625,12.82187939
991,2.433277607,0.349617153,7.350781441,11.51830101,-138.5562134,32.37003708
992,1.152186871,0.925676465,7.032522678,-9.008207321,-104.4187622,4.409672737
993,9.048615456,1.065765738,8.963682175,-5.930675507,-99.74015045,-1.927769303
994,2.980655909,-0.732624114,6.595210075,-9.757026672,-79.97573853,11.28776073
995,2.588947773,-1.673892617,9.878064156,13.84499645,-67.67492676,10.50847626
996,5.250213146,-0.768054545,6.95499754,-25.63584709,-23.74500656,-11.61664391
997,5.731456757,-1.528298974,4.530751705,-25.50306129,2.450917244,4.788619518
998,3.97872138,0.560774744,3.551047325,-25.58531189,16.19138145,-1.553786635
999,2.24833703,2.511507511,4.23137331,-26.82876778,11.12933922,-12.39364433
1000,2.041157007,1.735837817,4.893022537,-18.86445618,1.437111259,-5.103196144
1001,3.461727381,0.6208933,5.720277786,-26.70879745,-4.881433964,2.062704563
1002,3.859151602,-1.299582601,6.642692089,-15.29112911,-0.244800121,12.82994366
1003,4.582536221,-2.723229647,8.07567215,-1.79978621,5.852927685,11.87990761
1004,4.263264179,-1.16894567,8.684684753,6.514328003,16.74279594,-3.929139853
1005,4.998790741,1.199249387,8.797430038,12.24046421,6.275873661,-11.95601559
1006,6.290633202,2.163085461,9.038123131,14.06335258,7.566877365,-7.996831894
1007,5.469936371,1.337082028,10.28614902,5.805830479,0.752584457,4.920885563
1008,5.778748989,0.699959755,9.572881699,-3.258975506,3.705847263,16.29615211
1009,6.486954689,0.599326432,9.476400375,-4.876690388,13.65455246,13.74723244
1010,6.39240694,1.033554196,9.723789215,4.216839314,24.04482841,6.480520725
1011,6.81455183,1.180734754,10.24882507,-0.02451144,32.02688217,2.916112423
1012,7.55302,1.006169438,9.765875816,-14.15776348,38.10527802,8.992487907
1013,9.700251579,1.578596592,8.790351868,-19.0802002,43.50339508,7.289446831
1014,13.0611124,3.33618331,9.248231888,5.291295528,80.53437042,0.918185115
1015,12.61919022,3.227179766,8.816772461,3.403959274,114.2675552,14.49069405
1016,7.510167599,1.333776116,7.487475395,7.470709801,161.6851654,16.3535099
1017,3.532758236,-1.114982963,9.535344124,26.90567017,156.2110291,4.820898056
1018,3.029293299,-2.745509148,11.24474621,14.59180832,181.6339569,2.194490194
1019,4.768126011,-2.506563663,10.35211849,0.188236743,248.6911774,-0.091662228
1020,5.445722103,2.613867283,8.590662003,-26.35013962,322.2167358,-0.533862829
1021,6.68749094,5.984780312,7.195401192,-45.13111496,330.7236328,-2.323792458
1022,7.798924446,4.090364456,8.304793358,-80.27378845,283.2627563,-8.316110611
1023,6.524958611,-0.134965301,7.235309601,-76.45967865,245.7024841,-25.55403137
1024,5.532618999,-2.448220253,5.645981789,-57.09588623,233.377655,-26.18258476
1025,3.077137709,-3.55363965,6.712812901,-57.20721817,189.5084686,-7.904763222
1026,-0.295202732,-2.942852259,6.507334232,-8.758072853,134.8601074,6.533279896
1027,-2.610600948,-0.718912542,7.040994167,21.74316978,114.5953751,8.907258987
1028,-5.832706928,1.680743217,6.915475845,29.36996078,99.93437195,23.98819542
1029,-8.746508598,0.813913226,8.528162003,-0.251658469,86.05298615,28.27129936
1030,-8.285001755,-0.970902681,10.49817657,-32.55639267,73.12805176,12.08469677
1031,-7.839972973,-1.601797223,11.24100876,-63.93078232,91.70491791,-1.477386355
1032,-2.264873266,-0.176475659,12.47908974,-109.5154648,38.69022751,0.309723467
1033,-1.283938169,-0.467412233,8.454442978,-48.58536911,68.3866806,7.406237125
1034,-0.853681803,0.114284724,8.848402977,-10.02413177,26.47452164,9.865864754
1035,-6.184277534,-0.664979815,9.654922485,43.07263565,-4.916063786,2.110589981
1036,-6.670200825,0.197067901,10.01041603,18.32397461,-37.33864594,-6.916501999
1037,-5.431372643,1.855996847,9.846254349,23.69140434,-50.63385773,-9.353030205
1038,-6.054589272,1.634358287,10.77248478,45.54923248,-61.90576172,1.733535647
1039,-0.940024316,-0.534245729,9.874692917,5.705513477,-73.77986145,-7.721138
1040,0.701771796,-1.198991656,9.008682251,-7.48358202,-94.44574738,-3.099023342
1041,-0.383469284,-1.850821137,9.548985481,-10.49760628,-115.8623428,-8.829754829
1042,-0.977480769,-2.87186861,10.2735424,10.31206131,-146.5349121,-3.909775257
1043,-2.239430904,-3.22611618,11.45518303,19.89538574,-168.4729462,-7.006284714
1044,-1.853497982,-2.000984907,11.52057266,29.56873703,-171.7598572,-6.003427982
1045,-0.486582845,0.148441762,10.47323132,52.32201385,-162.4884186,-12.01799583
1046,2.710440874,1.482261896,10.04083157,73.60282135,-164.0250244,-6.132944107
1047,2.739628077,2.381608725,12.07213593,77.31741333,-199.4678192,14.43032551
1048,4.045078278,3.300120115,15.99465942,57.94706726,-254.8189545,29.19898796
1049,5.36895752,3.394179106,17.2653904,32.96507263,-294.2169495,29.55454636
1050,6.143769741,1.856283069,15.6597271,66.31153107,-253.271286,25.77879524
1051,6.365142822,-0.564294815,14.12916088,95.33892059,-152.8933563,22.13516426
1052,7.584072113,-0.115237832,13.63825417,77.23883057,-82.2445755,17.8168087
1053,7.571150303,1.248796582,13.97281933,43.91648865,-43.78771591,13.43549824
1054,5.959138393,1.857678175,12.62665749,36.69261551,-19.04315186,4.023459435
1055,6.926073074,2.292612314,11.25364876,49.56593704,16.11000252,6.424721241
1056,7.471051693,1.011400223,11.03066826,21.23590851,40.90601349,15.73310375
1057,5.780050278,0.188295037,9.092244148,-14.53829193,74.23915863,9.802591324
1058,8.507836342,0.53719157,7.303547382,-33.14466476,122.4867554,-5.237165451
1059,10.83181477,1.011034846,6.199417114,-45.87124634,145.2847748,-23.05789948
1060,9.09633255,2.036384821,4.23618269,-23.20142555,123.4844971,-17.82659149
1061,7.00241518,2.212975502,2.128617764,-7.885633469,175.192749,-19.76810646
1062,7.451624393,-0.802598715,8.344731331,-66.8759613,161.1154327,-27.90702248
1063,0.155732349,-2.613398075,8.280091286,-142.1235352,102.5264053,-7.546659946
1064,-2.793465376,1.241123319,-11.57766151,19.16119957,-5.596987247,-21.72864342
1065,-3.172926903,0.86534375,7.301869869,-1.920402646,-2.551179886,-11.41321754
1066,-6.200069427,-0.822949886,8.608063698,-43.2793045,-115.6913452,55.1927948
1067,-2.854025364,-3.682517529,7.03286314,0.250613719,-146.9060822,4.894255161
1068,-4.93689394,0.548940122,6.46146059,8.609585762,-174.2763977,-10.00267601
1069,2.861176252,0.074242994,13.70939541,19.02190971,-161.0960846,-4.220692158
1070,3.64267683,0.425405473,14.04312325,-14.13183308,-157.3917542,-10.42743683
1071,6.975687027,-0.824336827,10.12422752,-8.640553474,-158.9001312,18.76694298
1072,6.569041252,-0.651976168,8.109233856,43.8211937,-127.9996872,11.86470032
1073,3.973333597,0.304466248,10.1255703,101.1993561,-107.7917709,12.41185284
1074,1.191013932,1.348001122,8.147912979,54.23210907,-116.330307,10.18527794
1075,-0.578435183,1.93962574,7.382843971,2.502841949,-123.1525726,13.80929661
1076,1.969909072,0.566888571,8.083363533,-8.127733231,-113.5293121,13.64916992
1077,4.401109695,0.218137741,8.494632721,5.31095314,-100.0872803,14.61120892
1078,5.541127205,1.103194952,8.396571159,18.09972382,-85.32781982,19.80351448
1079,5.166529655,1.103946447,8.758515358,14.47628593,-85.95424652,18.44630241
1080,3.935877323,0.235453263,9.41697216,16.81344414,-85.53460693,17.5688343
1081,3.753607512,0.230325848,9.11151886,21.08062172,-76.62973785,10.38575649
1082,4.285572529,0.370458752,8.986804962,21.42658424,-58.90229416,6.516160488
1083,5.834309101,1.151842237,8.989632607,14.72714329,-37.94996643,10.1433754
1084,6.890541077,1.891363263,9.113323212,2.78583169,-36.34876251,15.78411674
1085,7.639297485,1.651995778,9.401216507,-19.34271622,-43.54249954,15.51865482
1086,8.268053055,0.897004962,9.316393852,-24.73532486,-24.66403389,6.573784828
1087,8.232178688,0.540994227,9.303946495,-26.99377632,-21.05246162,2.672011375
1088,7.992171288,0.239249319,8.914061546,-13.91605473,2.462182522,-1.947283506
1089,9.528446198,0.93416971,8.937179565,9.471740723,44.11145401,-7.874898911
1090,10.82100391,1.69168222,9.151106834,18.41470146,69.67388153,-10.21978378
1091,11.5086031,2.712495327,9.150942802,10.66243935,89.77844238,-6.144881725
1092,10.51105309,2.723345995,8.342821121,-4.275022507,123.8434219,3.932184696
1093,9.045126915,0.969241858,7.815485001,-6.956166744,151.8352051,13.15394306
1094,5.703602791,-0.946885884,7.903015614,5.237826824,186.3952026,10.88845253
1095,4.472079277,-0.337059557,8.921362877,-15.9624157,232.6400757,-2.509904385
1096,5.568203449,0.894244671,9.81171608,-46.3202858,252.9471741,-6.620500088
1097,8.295852661,1.949419141,8.586259842,-60.71326447,279.5502625,-9.04750061
1098,10.4300108,0.932874739,6.516655445,-71.3192749,304.3117065,-8.36830616
1099,8.432384491,-0.680362999,4.230260849,-53.9388504,287.8396912,-8.540558815
1100,5.602806091,-0.866499424,3.794184685,-27.68981361,248.7263184,-12.89643574
1101,3.873167276,-1.304431558,6.673159122,-47.93369293,192.8225861,-12.27457047
1102,1.756804466,-2.138782263,7.725868225,-66.89077759,155.1299133,-4.155008793
1103,-1.55008471,-1.480644345,6.495512009,-46.64201355,138.311676,1.590706348
1104,-5.477491856,0.311227143,4.455186367,10.95262241,115.196579,4.857818604
1105,-7.836878777,0.424389005,5.356797218,27.51604652,67.38856506,6.262754917
1106,-8.020236969,-0.601488829,6.87912941,11.69164658,22.61265564,0.777872145
1107,-5.938017368,-1.514232993,7.583977699,-9.224022865,25.05365753,7.19166851
1108,-3.147897482,-2.029533148,9.407207489,-48.19353485,13.66256237,11.27119827
1109,-1.257603049,-1.205224872,9.839515686,-22.62470436,17.63939285,1.096290827
1110,-1.411994815,-0.549925566,10.66610909,-21.29590034,2.639354706,-4.367644787
1111,-1.81780839,0.523050547,9.983462334,-5.302977562,11.80734444,-5.754145622
1112,-1.166040659,1.245872498,12.54874611,11.09991169,-8.002737045,-13.78600311
1113,-3.031311035,0.518838823,9.714083672,48.1836319,-32.16152954,-18.69016647
1114,-2.321714163,-0.600351989,11.91276836,28.5759182,-58.66876602,-13.88363361
1115,-3.207158327,-0.560816765,10.92750931,7.663412571,-74.84173584,-24.9659214
1116,-0.607465267,-0.229243398,11.98597717,21.03852844,-75.2424469,-21.29701233
1117,-1.347276926,-0.618123949,11.3599081,-4.179484367,-92.6101532,-19.13158798
1118,-1.609395385,-0.907263339,11.28916073,4.226365089,-92.01152039,-13.39214325
1119,0.849855125,-1.463305831,11.6373806,5.380250454,-105.8919907,-6.332268238
1120,1.791189551,-1.977562904,11.31470966,26.0388813,-109.3444824,-5.79298687
1121,1.964072943,-1.538734913,10.90148449,54.87881851,-99.59912109,-10.39478302
1122,2.966536999,-0.948617518,12.37860966,65.28993988,-128.6921692,-7.238469601
1123,2.28602767,-0.38632521,13.92333221,63.00040817,-173.3123779,-0.933784604
1124,2.963714361,0.975074053,14.85989475,74.13101959,-187.2257538,-17.15210533
1125,4.686620712,2.09065485,15.0474987,93.02478027,-136.6600952,-17.46738434
1126,5.979546547,2.078202248,15.22269344,87.48536682,-53.08739471,-5.511999607
1127,5.647143841,1.547944784,13.19111824,50.15883255,21.28153038,0.708224118
1128,4.426930428,0.207815275,10.77222157,16.74422646,78.26980591,1.593037009
1129,3.13480854,0.270128965,9.939202309,-4.306199551,91.70863342,-0.379617125
1130,3.330008745,1.295905828,11.66527843,-28.16036797,109.6183167,2.883889914
1131,4.212175846,1.798799157,10.72038269,-45.81038666,165.4844818,4.349425316
1132,5.150708199,1.489681005,9.209711075,-65.46652222,205.3217468,1.681006312
1133,6.924755573,0.681468844,7.035474777,-69.25950623,221.2634277,-2.030376911
1134,8.342321396,0.330050558,7.326645374,-98.38018036,230.0659943,-8.525066376
1135,8.001384735,0.156728655,5.909501076,-122.1746292,220.9928284,-20.48877144
1136,4.745886326,-0.746695399,5.360325336,-116.348175,208.1300812,-32.21425629
1137,-3.367083073,-1.790006995,5.143109798,-53.84524536,122.8503113,-18.7336483
1138,-9.656978607,-1.05847466,4.682053089,63.59148026,-2.046221972,9.87679863
1139,-3.687361717,2.312592983,9.516673088,24.89077568,-26.09036064,-12.02706051
1140,-3.352122307,0.861028016,13.31568813,-37.58019257,-79.24386597,10.83355904
1141,-7.244417191,-0.010373425,8.462509155,-46.10963821,-124.8662109,5.274727821
1142,-4.248760223,-0.861128867,9.473658562,36.3695755,-208.0165253,-14.2960186
1143,-4.361982346,-1.01019609,9.873900414,73.13006592,-261.1508179,-15.72645473
1144,-1.482628345,-1.54878819,11.54966164,87.35727692,-235.0881195,-12.31524754
1145,2.417623043,-1.158857107,13.18686962,88.40524292,-208.0743713,-1.664895177
1146,5.999475479,-1.196560144,12.447155,73.21737671,-175.1257935,0.200316742
1147,8.795848846,0.645040631,10.95541191,83.96792603,-176.916687,5.459649563
1148,7.040207386,1.587612867,13.66845989,87.87095642,-199.6042938,13.78672314
1149,4.108893394,0.808311999,13.93440819,43.14218903,-226.8039093,12.31069279
1150,2.975656271,0.329561591,11.63999462,18.51092339,-231.9062347,15.10021019
1151,3.834684134,1.340659261,9.306777954,8.973768234,-217.4585114,14.91752625
1152,6.306694984,2.838877201,6.299173355,19.01110268,-133.6047974,12.91121006
1153,5.809897423,2.445864677,7.213621616,1.47257936,-75.32939911,32.01722717
1154,3.584734678,1.611292958,7.336644173,-23.30617332,-96.59661102,34.55965805
1155,2.042215347,1.553474069,8.686265945,-19.31071281,-80.26142883,0.912826538
1156,3.738560677,0.134912208,8.076812744,-34.17502594,-79.79947662,14.45207977
1157,4.409673691,-1.214396238,8.965484619,-21.29731941,-58.58327866,32.33874512
1158,4.399534225,-1.091601491,7.822068691,-21.60050964,-28.82302666,19.79815292
1159,3.787314415,0.687167704,6.350149155,-30.80025101,12.1428175,1.34206605
1160,4.773228168,1.477227092,3.352724314,-43.61750031,-4.923120975,3.366120577
1161,2.636054754,0.939078927,3.149162531,-54.12127304,-5.149852276,4.065456867
1162,1.424412608,-1.083977342,4.572582245,-45.98039246,-20.39609528,1.619159698
1163,1.126036286,-2.361897945,5.803547859,-20.71185684,-30.12668037,0.808167636
1164,2.644776583,-2.053735971,6.472367764,-0.706298113,-30.69834328,1.43589747
1165,3.270646572,-1.676671743,7.099948406,19.78640366,-22.28044319,2.669934034
1166,3.468133211,-1.163798928,8.171309471,32.47371292,-17.76676941,5.585312366
1167,4.660047531,0.135993302,8.341579437,35.94937515,-17.59951782,2.558557034
1168,6.661385536,1.655098557,9.625085831,21.15542221,-21.26015854,4.256031513
1169,6.833891869,2.308140039,9.957623482,4.226302147,-35.22150421,12.70774651
1170,7.023635387,1.120707989,10.67851257,-1.460268617,-44.80036926,16.91719055
1171,7.340707779,0.528604329,11.54906273,-8.674923897,-50.94652939,18.89997482
1172,7.281180859,-0.836848497,12.02163982,-6.391208649,-54.26972198,15.14636135
1173,8.128142357,-1.781013966,11.43166828,-8.439771652,-49.5436058,14.10770607
1174,10.04359341,-0.961143255,9.495591164,-8.454998016,-3.175604582,0.96974194
1175,11.94301033,0.634696484,7.177193642,32.12136459,49.77232742,-12.43440723
1176,13.46085167,2.635327101,7.728670597,54.39493561,91.2898407,-11.43505192
1177,11.39478874,1.722388625,7.566089153,30.15842438,130.3262177,-3.944559813
1178,7.585380554,-0.51237154,7.446712017,25.19589615,155.0704346,-6.762105465
1179,4.925969601,-0.791222334,7.696984768,41.32749176,156.592514,-12.39911461
1180,4.625941277,0.03655798,9.123772621,22.3202343,198.7000275,-15.99190426
1181,5.058388233,1.28733623,8.548230171,-21.2868309,259.5805054,-13.53729725
1182,6.205838203,2.443466425,7.784368038,-60.0067215,313.0675049,-11.31328773
1183,7.725148201,2.689415932,6.830278873,-103.3400879,331.1412048,-1.046050072
1184,7.830516815,0.82386291,7.335058689,-130.463028,288.1322021,6.947046757
1185,6.609120846,-1.259807587,6.761510849,-120.9524994,275.4803772,-4.808506966
1186,6.395699978,-1.607891917,6.516050339,-96.60179138,251.4831696,-5.045501232
1187,4.592526913,-3.244809866,6.418827057,-61.22273636,190.4173584,8.668779373
1188,2.114783525,-5.06384325,5.983343601,-23.9994297,156.4344788,10.46971035
1189,-1.85445869,-3.767817259,6.560110569,5.884528637,142.4630585,0.690913618
1190,-6.221947193,0.786467135,5.245595455,32.26369476,116.395874,9.902061462
1191,-9.856287003,1.372903705,7.781489372,16.97081184,86.40093994,15.39375591
1192,-7.858284473,-0.445508152,10.15163898,-38.86626053,44.12366867,-8.330153465
1193,-5.622288704,-1.611205816,6.944973469,-59.31756973,55.35505295,-9.226442337
1194,-0.746908367,-2.431616068,7.472625732,-45.06507874,67.77362823,-2.007403612
1195,0.156080887,-2.226524591,10.5913105,-8.06708622,33.80560684,0.486854613
1196,-2.943828106,-2.395585299,11.2012043,4.635179043,15.8644228,-2.035378933
1197,-5.980669022,-2.07879591,9.752075195,11.68074417,12.61096096,-15.17590523
1198,-4.496331692,0.439672589,9.576063156,36.72683334,-19.66538239,-9.023622513
1199,-2.860165596,0.923340082,11.68946171,48.79220963,-45.4999733,-1.926252127
1200,-2.26643157,1.852188468,13.33514881,36.49501801,-70.53816986,-5.187385082
1201,-4.005984306,1.005502939,10.42766762,23.00679779,-71.9836731,-11.89682484
1202,-2.471647739,-1.062582612,10.81024265,10.63182163,-92.78176117,-20.13748169
1203,-0.495023966,-2.095202208,9.987085342,-14.96095943,-123.1917419,-2.198700666
1204,0.142428339,-3.470090151,10.61614227,14.69223022,-121.322258,-4.372158051
1205,1.751738071,-2.30597353,10.74425507,20.44707108,-138.984848,-7.808556557
1206,0.56680584,-2.102772474,10.64435101,44.94404221,-142.0119476,-1.903114676
1207,1.335045457,-1.707154632,10.44476128,57.71851349,-147.7632599,4.053031921
1208,2.325221539,-1.07111764,10.53276539,85.27516174,-153.6718445,1.973615646
1209,2.700214624,-1.126294017,11.67483807,86.91004944,-182.6790466,-4.294383526
1210,3.596541405,0.693434715,15.10326004,76.96671295,-242.1293335,3.48394084
1211,5.478280067,3.801828146,18.08913612,70.17249298,-271.4664917,15.98554611
1212,6.592587471,2.95437789,16.94324303,67.02506256,-209.5936584,12.71183205
1213,8.804654121,1.64990747,15.20245075,83.19187927,-101.2421417,-8.314527512
1214,8.830461502,0.962787986,14.54078007,56.88289642,-42.89273071,-12.47792244
1215,4.50037384,0.093976319,15.01219559,34.00654221,-35.66947937,-1.592937827
1216,4.053703785,0.228296101,13.25461483,43.86266708,-0.841620445,-14.67073917
1217,5.697573662,1.539927483,11.93371105,35.64930725,46.6121254,-23.94527435
1218,5.738253117,2.27270484,11.55566311,2.630090237,73.07067108,-8.561099052
1219,5.519779682,1.77794385,9.476667404,-25.54151917,104.9485397,-6.117480755
1220,8.728675842,1.275484681,6.272536278,-38.23453903,147.07341,-13.19635391
1221,10.47229958,0.280140936,4.438363552,-43.81576538,161.8159943,-18.14497757
1222,8.048909187,0.882356822,4.111388683,24.91395569,131.8358917,-12.15707207
1223,7.539411545,2.430204391,4.240591526,30.3785038,124.6986313,17.71414566
1224,4.358912468,1.307260633,7.841114998,-75.67310333,146.0216064,2.278281212
1225,-0.924052,-0.296436727,7.178213596,-81.09764099,24.38989639,13.41967964
1226,-4.690632343,3.217658043,-6.994029522,21.84721756,-49.22354126,25.02315331
1227,-4.309082985,0.587267101,9.151250839,6.29476738,-104.3944244,33.14518738
1228,-5.181470871,-2.529474497,6.282232761,-19.24449921,-171.6223755,35.48121262
1229,-3.571340084,-1.315991402,5.136354446,19.87996483,-177.4506989,-7.426175117
1230,0.368840933,0.369513273,7.705483437,30.33596039,-178.3527527,-12.25911903
1231,2.0249753,1.210345864,12.57738686,25.37796974,-136.2453003,8.135773659
1232,8.49437809,2.582580566,14.12253761,-25.99210739,-139.6454468,9.565516472
1233,8.195565224,0.01103032,10.09201241,3.712685108,-143.5672302,11.74637508
1234,4.220134735,-1.571172357,10.43250751,45.09878159,-122.628273,6.302909851
1235,1.456269741,0.242895305,10.69760609,40.33720398,-134.9161072,10.85618114
1236,0.4802984,1.003547072,7.375877857,22.01105881,-132.923233,14.14434052
1237,0.806879997,1.923227787,7.157901287,-0.994368613,-128.4629364,8.620463371
1238,2.967265368,1.442821741,8.306168556,-18.4986515,-114.0857544,11.45349979
1239,5.419345856,1.054107785,8.435375214,-8.79867363,-93.22956848,31.04073143
1240,5.802437305,0.591178179,8.769213676,5.032916546,-73.20227051,29.1887455
1241,4.529386997,-0.55817765,9.845088005,5.388348103,-74.39468384,22.42118454
1242,3.716372252,-0.906298459,8.970413208,5.379842281,-70.85895538,12.8905859
1243,4.461256027,-0.510806143,8.233549118,16.04276085,-61.32609177,10.87760258
1244,4.641270638,0.743128657,8.177546501,10.06652069,-56.0808754,18.7890873
1245,4.892168522,2.36783123,8.276111603,1.588488936,-55.6034317,26.21529961
1246,6.729367733,2.216892004,9.358279228,-12.28471279,-50.62822342,26.06429672
1247,8.551214218,1.686534047,9.613030434,-33.4507103,-38.49289703,23.54391098
1248,8.576845169,0.736546814,9.70539093,-41.15607452,-25.86536407,20.45857811
1249,8.346593857,0.19483304,8.714069366,-34.4882431,1.301061034,12.36359692
1250,9.119962692,0.22972247,8.775465965,-8.074162483,29.95259666,5.756480217
1251,10.22684288,0.795347691,8.653467178,5.644645214,60.37498093,3.232409716
1252,10.52170086,1.390677691,8.435937881,8.442881584,77.22559357,3.439526081
1253,10.53059864,2.009343863,8.764892578,9.872203827,93.1789856,6.33696413
1254,9.958769798,1.726447582,7.66453743,8.812729836,124.8590393,8.120251656
1255,8.583984375,0.727170646,7.074911118,0.59495765,156.3330536,9.658706665
1256,4.571332455,0.31797725,8.314141273,-19.33293724,166.7542877,13.45875168
1257,4.937507153,-0.68086791,10.11914444,-34.24845123,190.2149353,13.27109909
1258,6.197262764,-1.250338435,11.145504,-50.95084381,223.4042511,16.12412262
1259,7.847092152,-0.085609205,9.533171654,-45.4655571,293.7878113,9.406482697
1260,9.511498451,1.42117393,7.786636829,-23.87600327,330.3248291,-3.552920341
1261,9.208384514,1.244592309,5.745903492,-7.497596741,282.0231018,-5.674293518
1262,7.308557987,-0.19447729,4.251488209,-3.420103312,251.0464172,-15.50413036
1263,5.947349548,-0.2391527,5.028024673,-38.94940948,219.872879,-20.63236427
1264,3.85272789,-1.961834192,5.722665787,-82.9305191,169.100235,-1.922127485
1265,0.871443808,-3.278784752,4.374967575,-63.59245682,144.3350677,9.489393234
1266,-3.078397751,-1.907736063,3.636093378,-0.714974821,127.4990616,10.04595661
1267,-6.767968655,0.622518182,3.84414959,47.49550247,100.6655045,9.132661819
1268,-8.548591614,0.792417586,6.592351437,17.61031532,55.99196625,10.8866539
1269,-7.256247997,-0.800948203,6.267221451,-6.918076515,41.3641777,13.49631596
1270,-4.255021572,-1.18038559,8.053538322,-35.90939713,33.31418991,10.12588882
1271,-3.420054197,-0.541815162,9.631999969,-65.78143311,6.448123455,-7.641840458
1272,-0.092419386,-0.916847527,9.500457764,-63.08043289,9.143852234,-3.160390139
1273,-4.4809165,-2.673563957,9.233901978,-15.56400394,-6.267714977,-17.18756866
1274,-2.111141205,-0.539558351,10.39519405,-7.690320969,-29.7764492,-21.20666885
1275,-0.275905341,-0.237777874,11.8857851,1.048942685,-37.37286758,-19.55050087
1276,-1.164389968,0.56981492,12.86536884,5.630053997,-45.28541946,-8.74398613
1277,-2.880609274,-0.550583065,12.25542641,1.988614559,-59.42941666,-9.463540077
1278,-4.502020359,-2.867897272,11.9307394,-7.989675999,-71.57914734,-5.626015663
1279,-3.377840757,-3.107805014,11.72403526,1.946873903,-86.492836,-14.65659237
1280,1.647673726,-2.222592592,12.52946186,28.16346359,-75.47340393,-20.66528511
1281,0.780667484,-1.915191293,12.36513138,18.70395851,-93.73656464,-24.67838478
1282,0.804687262,-1.538132668,11.92798996,28.43307304,-103.6980515,-16.91698647
1283,-0.493218958,-1.696988702,10.83316708,44.05245209,-117.58358,-5.074062347
1284,0.694581926,-1.391509295,10.74998188,54.51242828,-117.5182419,-6.886004925
1285,2.619740248,0.007495716,11.66432095,62.27770615,-130.4311676,-7.281619549
1286,3.337575436,-0.06259878,14.86673164,67.09746552,-184.8635712,-0.922419846
1287,4.504353523,-0.58476162,15.97609711,69.70915222,-205.9736633,-11.21628475
1288,6.153268814,-0.68036294,15.21706581,96.35552216,-147.9756622,-27.02468872
1289,6.526871204,-0.191292182,14.17494202,106.696312,-69.90544128,-19.26022148
1290,6.100670815,-1.030975819,13.97697353,75.03832245,9.609519005,-10.09739113
1291,5.379098892,-0.068677455,13.03298569,17.96373558,83.15372467,-8.934329987
1292,3.804312229,0.894947171,10.05322742,6.447233677,101.1528473,-10.58721066
1293,3.254029274,1.010348082,8.015439987,28.37446404,127.858696,-18.04878044
1294,3.489584923,1.335143924,7.884761333,36.05935287,184.9085846,-17.49909401
1295,4.890781879,1.465506911,7.793959618,8.78155899,212.8320465,-21.20363045
1296,7.330219746,2.975251436,7.444900513,-35.75069809,242.9620514,-25.43764496
1297,7.815350056,3.966636896,5.539409637,-63.85104752,262.7996216,-13.22507858
1298,4.77426815,4.332971096,4.364184856,-49.30136871,270.5631104,-0.538163841
1299,3.699347496,2.66432786,4.389057159,-89.29120636,231.253891,-6.734071255
1300,-0.599637032,0.37771973,6.750280857,-104.3858871,144.7021484,-28.98942757
1301,-5.837694168,-1.547841311,7.476280689,-106.6414871,50.01541901,-22.5332756
1302,-5.869947433,-3.012307644,16.03807449,-56.92560959,-63.93809891,-19.49815369
1303,-6.948811054,-4.053077221,13.4771471,-22.37897682,-83.58652496,-7.174684525
1304,-5.401770115,-2.699947357,9.940337181,20.82245445,-174.839447,-23.27755737
1305,-4.024571419,-1.209231853,8.525067329,80.7538147,-215.3386536,-15.97201824
1306,-4.068809509,-1.155608773,9.083753586,79.05919647,-250.3502045,5.909350872
1307,-0.940119982,-1.997617483,12.738904,46.74310303,-207.0348206,-1.964409113
1308,1.532628894,-0.495958418,11.94172382,35.22815704,-196.5323792,1.718949795
1309,5.257926464,0.233463287,9.157493591,28.74341393,-195.3578186,-3.908650398
1310,5.494300365,0.264367074,8.4731493,53.86766815,-179.7477417,-23.39030075
1311,4.987116337,0.337903649,11.21280098,72.16621399,-182.4611969,-21.5554657
1312,4.227864742,0.51581341,11.48540401,52.34035873,-197.1055756,-11.60331821
1313,2.989062786,1.260690212,10.82029629,36.3916893,-223.8952942,11.20440578
1314,4.527615547,2.994894743,10.90957069,25.04361725,-222.6655731,17.12004852
1315,4.377148151,3.215984106,9.041553497,19.83430099,-166.4369202,25.20217705
1316,4.651074886,2.694674969,7.772438049,-7.214375496,-138.4184875,42.14452362
1317,4.347794533,0.463431031,7.802954674,-19.564888,-114.5917816,32.20411682
1318,4.462376595,0.281347513,9.287367821,-33.70470047,-98.63439178,-8.423969269
1319,3.671549082,-2.329068899,7.031653881,-45.26313782,-53.17945862,6.404137611
1320,3.832348824,-2.550839424,8.914352417,-34.94996262,-39.50368118,34.38389206
1321,4.458123207,2.418469667,9.959819794,-39.74541473,-21.82188606,6.496395111
1322,2.123557568,4.415664673,11.53724575,-1.8848387,-2.109743834,4.217368126
1323,3.571244955,1.947461486,-0.827384233,-82.09477234,-38.28461075,12.48956203
1324,3.194518805,-1.674606085,3.680894375,-76.15585327,-31.8345871,3.474689007
1325,1.925863266,-4.042946815,5.44686842,-57.46418381,-22.40933037,-2.309367657
1326,1.613046288,-4.737644196,5.3567729,-23.29409409,-21.13212013,-7.118390083
1327,3.798903227,-1.600056529,5.988005161,17.50804138,-26.81995964,-1.676549315
1328,2.493420601,-0.141456962,7.14253521,28.06654167,-16.90867805,-7.907227993
1329,2.781066179,-0.099388734,8.083105087,28.07841682,-15.5171299,-4.148599148
1330,4.715308666,-0.280031413,8.818231583,33.41014099,-9.468570709,9.086241722
1331,5.920591354,0.566498876,9.424861908,29.80495834,-11.48211765,12.65300083
1332,7.018592834,1.756141901,9.040567398,23.15775108,-18.7303009,16.09089851
1333,7.35130024,1.293908119,10.11387062,11.04785061,-25.16547775,18.83236122
1334,6.4368577,0.993993342,9.741849899,-6.397758961,-24.12891579,23.95620346
1335,5.679902077,-0.148992151,10.19223785,-4.114264965,-30.25636482,22.19595337
1336,6.037767887,-1.203934312,9.810620308,-8.681128502,-28.94978714,18.91992188
1337,8.406047821,-1.357072592,9.645389557,2.633023977,-19.7682476,16.7555542
1338,11.12746525,-1.102532983,8.743593216,14.82279778,16.88570023,-2.044684649
1339,12.23356438,-0.035483256,9.72636795,42.40203094,72.349823,-13.67229748
1340,10.9147892,0.427337885,8.648285866,60.38499832,118.2342072,-14.85344028
1341,10.47060204,0.900879025,8.738513947,60.84388733,162.3507233,-11.38246822
1342,7.601203918,1.656170726,8.299973488,47.45394516,169.5035706,-11.22316551
1343,4.201159954,1.8994385,8.099736214,14.06370735,184.5678406,-6.714041233
1344,2.905077934,1.500488758,8.835802078,-34.91674423,205.9299774,-4.720351696
1345,4.651148796,-0.260546058,9.495214462,-70.57059479,235.7484283,-4.63228941
1346,6.876126289,-1.012125611,9.543626785,-73.34764099,300.4888611,-9.550741196
1347,8.266812325,0.819971383,8.511829376,-51.17621994,345.6572876,-7.697849751
1348,7.866005421,1.01851356,8.165063858,-63.84331512,326.9339294,2.327183723
1349,5.769163609,-0.132992402,5.914873123,-58.76974869,278.3068542,-2.25912714
1350,4.958174229,-0.839278281,5.148321152,-24.01541519,250.5211487,-18.83790016
1351,3.480772734,-2.25063324,7.341387749,-13.01361179,183.4646149,-21.76055908
1352,-0.408436805,-2.224714279,7.200759411,-19.11317635,129.4580841,-15.49860954
1353,-4.260801315,-1.180036426,7.375968456,-1.580632448,97.99284363,-0.310442835
1354,-7.592804432,0.329581916,7.312889576,18.65781021,87.9825058,19.29188728
1355,-7.533456326,-0.181376025,8.200157166,-2.488794327,61.85756302,8.769235611
1356,-7.246143341,-1.260007858,10.8861599,-63.37210846,75.7635498,-11.09651852
1357,-5.201087475,-2.545878172,13.16501808,-124.9650726,45.77199554,-9.13694191
1358,-4.199940205,-2.329363823,7.267914772,-92.0987854,38.45330429,2.18205452
1359,-1.001722693,-2.160160542,7.457076073,-12.7181015,45.39042664,-7.724941254
1360,-1.617194414,-2.117426157,8.515207291,12.40834332,19.16802025,-10.8479557
1361,-5.334068298,-2.215317249,9.552646637,28.49586296,-6.71711874,-19.127985
1362,-5.073235989,-0.585771203,9.093128204,32.32941055,-31.84572029,-13.54515839
1363,-4.467477798,0.981560528,9.344414711,31.76975441,-50.70487976,-7.179171085
1364,-2.925517559,0.659661651,11.2113409,5.667397976,-66.32774353,-0.611595988
1365,-2.312355042,0.160935968,10.75573444,-9.411547661,-58.7287674,-3.965247631
1366,-2.624920607,-0.039131667,9.114624023,-14.20773697,-62.88277817,-10.40917587
1367,-1.885905385,-2.260685921,10.56314468,-26.4068203,-88.25692749,-9.717540741
1368,-0.059036911,-2.940003872,10.60071754,-24.02334595,-114.1218338,-3.325577736
1369,-0.363699734,-3.380191088,11.20659351,-6.676813602,-118.4876785,-8.115088463
1370,0.000451788,-3.366372108,10.99799633,7.397193909,-128.1125183,-10.58559132
1371,1.171807885,-3.072951078,10.85368252,27.26262093,-133.364975,-9.168654442
1372,1.215520859,-2.329514027,10.55018616,39.58388519,-142.1186371,-9.011081696
1373,0.960266054,-1.042055368,10.57732296,62.7403717,-154.4765778,-9.294519424
1374,1.096265793,0.183212325,12.29162121,77.25525665,-201.213501,-10.69786453
1375,2.288568974,0.884348631,16.4056282,74.05592346,-264.3102417,1.548609257
1376,3.29574585,0.876773179,18.08305168,75.99613953,-293.1102295,16.91947365
1377,6.359170437,0.979544759,16.23209763,98.45982361,-216.4723358,8.273183823
1378,9.006237984,0.853266656,15.86093616,86.53780365,-123.7936707,3.0400877
1379,9.3680439,0.250507295,14.58632851,62.56292343,-98.80580139,17.89711952
1380,6.461487293,0.158658832,13.6457777,50.0228653,-90.41965485,11.21493435
1381,5.463433743,0.223640889,11.46103954,42.72974777,-36.42417526,9.814462662
1382,6.463378429,0.907080054,10.95108318,41.05024338,-6.242739677,12.061203
1383,6.456068993,1.476978898,10.28819084,5.121033192,29.79112434,2.489255428
1384,5.144749165,0.110011712,8.988491058,-15.17634583,63.30894089,-4.434207439
1385,7.918827057,-0.015821995,7.188939571,-11.13264179,107.447464,-2.645599842
1386,10.26066685,-0.97414875,5.985787392,-21.00254059,147.7563324,-10.25022316
1387,9.044692993,-1.497933149,4.182433128,-22.79643822,167.0024414,-24.06761169
1388,8.080611229,-0.927822053,6.533078671,-11.83780956,150.6150818,-21.01555443
1389,4.299309254,-1.025083542,9.738310814,-39.83582306,124.2688904,-15.97536182
1390,-0.820489407,-2.557986736,-0.193650782,-36.19904327,59.17269516,-13.44820213
1391,-0.030113738,-0.509676814,-4.887417316,70.10041046,14.85893631,-30.28412247
1392,-2.352030993,3.087717056,6.193482399,48.80097198,-52.38911438,2.355879545
1393,-2.519212484,3.04127717,7.182954788,-21.72897148,-133.025589,32.69311905
1394,-4.124974251,1.394639611,6.890098095,2.000798702,-139.4991608,18.35969543
1395,-3.342000246,-0.416472971,6.985693932,29.49580956,-156.5633392,11.19124126
1396,-0.977922261,-1.342730522,10.4185133,17.08281517,-138.8717499,6.820711136
1397,5.509857178,0.767560661,13.23522854,1.046119452,-150.4604492,-11.09597206
1398,9.527194977,-1.463532686,10.56264782,8.310842514,-164.6166229,-25.6721611
1399,8.351379395,-1.375172853,10.5704937,83.95169067,-105.6122742,15.82114601
1400,6.066190243,2.184262753,12.21767139,108.0329361,-106.9997253,32.86317444
1401,0.669554055,3.059937954,10.95619297,38.26784515,-121.993721,15.47311115
1402,-0.935687125,2.319236279,7.183030605,-8.492190361,-126.336113,14.01863194
1403,1.973135591,1.461119771,6.917068958,-4.585715771,-119.5952759,15.04929066
1404,4.140393734,0.832736671,8.293362617,-5.227108479,-101.6297913,18.3753643
1405,4.246863365,0.884666443,7.849600315,3.436172724,-80.76924133,14.92155266
1406,5.447884083,1.090313435,8.399921417,6.272920609,-67.11521912,7.47548151
1407,6.099428177,0.509449542,8.749026299,-1.09083271,-70.75345612,12.21933651
1408,5.088564873,0.21073778,8.69012928,-0.002055464,-76.37866974,19.30842781
1409,3.309457302,0.667252123,8.888580322,-7.489916325,-71.10137939,22.55516815
1410,3.716660261,0.95712918,9.156733513,-16.85072517,-64.82546997,17.52649498
1411,6.181353569,0.931043386,8.995567322,-10.96309566,-54.53936005,11.90954018
1412,7.900328159,0.716292799,9.535588264,-6.920378685,-50.66959,5.745481491
1413,8.854105949,0.840586543,9.013374329,-11.98476887,-35.72198486,6.922809124
1414,8.731173515,0.137594044,8.315941811,1.574305415,-14.6758976,6.052306175
1415,8.252461433,0.24191004,7.961955547,15.50689793,13.00558281,-2.571704388
1416,8.907547951,1.038179398,8.701846123,15.46588421,39.67142105,-10.29849339
1417,9.609724045,1.82773447,8.142806053,18.83654785,69.47275543,-12.21690464
1418,10.32275867,2.645904303,8.298774719,19.49588013,94.21939087,-15.11189651
1419,11.1684351,2.810140371,7.718218327,28.48345757,121.4332962,-14.17727375
1420,11.01574993,3.218014717,7.754611492,20.91584969,154.4786224,-5.812237263
1421,8.557515144,2.468279839,7.426175117,11.57257366,180.6876678,2.231783867
1422,4.705118656,1.343742013,8.034188271,-8.616535187,193.6779633,0.691615224
1423,3.892447233,0.506045938,8.96735096,-32.34245682,212.2750854,1.110157967
1424,6.250620842,-0.346755445,10.42050838,-38.29856491,247.0330811,3.555711269
1425,8.30815506,-0.704006255,9.892614365,-41.80246735,312.8433533,-3.350357294
1426,8.754710197,0.710011661,7.326591492,-20.72879982,370.6210632,-15.49977875
1427,8.116094589,1.308144331,5.470189571,-5.543931007,327.760376,-16.08421707
1428,6.044598579,1.922815442,4.335478306,19.43603325,267.6790771,-26.86200142
1429,5.562255383,1.958616376,6.499099255,-8.555409431,218.7490387,-38.55187988
1430,3.461936474,0.697394133,7.963475227,-72.62926483,158.059494,-22.46142578
1431,0.492737114,-1.523799658,7.859713078,-101.1597061,125.5292206,-8.06846714
1432,-3.338347673,-0.631337404,4.659240246,-49.19477844,100.676651,2.180620909
1433,-7.319180012,2.025250196,2.272045612,36.67790985,85.70278931,15.89214325
1434,-9.818721771,2.280898809,5.906748295,8.942422867,35.05194092,29.95695686
1435,-8.845018387,0.820562243,7.656364441,-43.80578232,0.946373224,30.31191254
1436,-6.225164413,-1.323318243,8.544582367,-59.24990463,-9.833845139,26.99308586
1437,-2.609364986,-1.165666461,8.490834236,-47.4444313,-24.34329414,18.46893692
1438,0.164179519,-0.725237668,10.63340855,-39.15554047,-30.19611549,5.190522671
1439,-1.268915296,-1.561003447,9.033132553,-41.94522858,-11.69322968,-2.164473295
1440,-3.270396471,-0.30234623,9.408267975,-29.29869843,-14.45200062,-0.870918274
1441,-2.146193981,1.2944206,12.73279858,2.838649035,-21.79300499,-12.7751627
1442,-0.600662529,1.984612226,12.04008102,16.52384186,-31.32250977,-17.78278351
1443,-1.277522326,-1.288493752,11.26605034,14.53430843,-41.51901627,-5.643330097
1444,-3.635993719,-1.782479525,11.3035202,26.22549438,-57.28777695,0.598026574
1445,-3.328737736,-0.465531349,10.97625923,29.26972771,-72.15293121,1.199993372
1446,-2.241208792,-1.032106519,12.0313158,10.70724297,-88.8186264,2.468211889
1447,-0.435207576,-0.256124437,11.67276859,-35.24015045,-106.9964523,-2.857192278
1448,1.564678788,-0.424390733,10.95776939,-20.74692345,-117.3307495,-1.108848691
1449,3.289283991,-1.456666112,10.22380733,-1.490056753,-115.3900757,4.202421665
1450,2.538701773,-1.931535006,11.17381287,28.70734406,-115.0839386,7.38603878
1451,1.800953865,-1.997430682,12.37703609,33.62999344,-126.9159927,4.541100502
1452,1.757031202,-1.272265077,13.83490181,53.80040741,-152.4569702,-0.031071071
1453,2.436079502,0.021079943,15.00527382,97.31031799,-186.8003082,-12.82150078
1454,4.388982773,1.702014804,15.83168411,136.6925354,-177.0848846,-21.81030083
1455,7.052372456,2.147454262,16.58196831,146.4467773,-120.0981445,-21.16843414
1456,6.87580061,1.631724358,14.21195793,129.7723541,-29.05470657,-23.92783737
1457,5.315414429,0.343256116,11.41116428,86.06417084,90.60236359,-30.46235466
1458,3.569090366,0.82622999,9.129125595,18.88922882,133.0558167,-26.63794708
1459,2.166519165,1.948737264,7.290370941,-15.42438412,92.46414948,-9.240927696
1460,1.996277571,2.522022486,8.248806,-22.02292824,118.760437,-5.602663517
1461,3.760046959,2.40195179,8.708861351,-29.27315331,175.2810822,-7.684666634
1462,4.782884598,1.271405578,8.012981415,-56.66389465,221.9130249,-10.09970379
1463,6.161509514,1.450270295,7.139251232,-71.77384186,239.8997498,-19.56560898
1464,7.175944805,1.674857736,7.460505962,-79.36676025,229.6793823,-29.88756943
1465,5.513639927,1.289462924,6.9675951,-80.51205444,182.1595459,-28.37554932
1466,1.808313131,0.237876043,7.512256622,-98.11486816,129.2837677,-33.21687317
1467,-1.750291824,-0.181728899,4.767969131,-87.21064758,69.0059967,-19.64961052
1468,-5.941753387,-1.985617876,3.977216244,-39.33573151,4.940731525,-8.463874817
1469,-6.994441032,-1.475246072,9.584230423,16.98407745,-21.12565613,-12.10486221
1470,-7.728794098,-2.784341574,15.51730537,-26.00432587,-50.79841614,-16.63516235
1471,-4.585636616,-0.398346066,10.42741776,-38.24065018,-150.9244995,-35.51872635
1472,-3.807327509,0.485904694,8.250927925,65.89697266,-192.2577209,-38.43452072
1473,-0.604060948,1.801046014,9.850580215,101.6672592,-222.5281677,-33.31739044
1474,1.89549613,1.675351501,13.01836872,96.25740814,-202.0031128,-8.112687111
1475,2.147751808,0.578111589,12.92898273,71.28223419,-204.800415,21.56239319
1476,4.66913414,-0.272903562,12.33937359,67.25595856,-203.4234619,20.93891907
1477,5.852763176,1.8304739,11.23208332,78.52820587,-203.6837463,12.87799358
1478,4.6772542,2.063261986,12.71145916,54.22769165,-215.4417572,19.1048069
1479,2.801205873,2.779357672,11.77674198,13.47769642,-238.9438171,23.51791
1480,4.213631153,1.302575827,10.42474556,-10.87110806,-261.1789551,23.96415329
1481,6.821106911,0.660331547,9.368167877,-2.034073591,-232.3325806,1.606919885
1482,7.434809208,1.208827496,6.98986578,16.25822639,-151.7507172,3.697714567
1483,5.447993755,1.98722434,6.610010147,26.02536011,-100.2545166,18.43714905
1484,4.173118591,2.015525818,7.308562756,17.76283264,-91.61791229,11.98317146
1485,3.827295542,1.211815953,8.926019669,-6.609692574,-64.72431946,-3.818981171
1486,5.424909592,0.41467008,8.54400444,-3.358822346,-90.11852264,19.94392967
1487,5.253195286,-0.932315171,8.715815544,-0.567000628,-51.29873276,18.96539116
1488,4.278347015,-0.894963562,9.174174309,-19.92225075,-16.81465149,12.53682423
1489,3.608236313,-0.580102444,6.96162796,-79.62388611,7.091943741,-0.496763021
1490,3.687879562,-0.475199014,4.135744572,-70.97800446,15.05663776,-13.64370537
1491,4.614495754,-0.366610646,3.661472559,-45.93200684,13.11208057,-24.91607666
1492,3.254742861,1.072132468,4.501591206,-11.27769947,15.87490559,-23.49297333
1493,2.685325623,1.248561263,6.117597103,-14.04846096,-1.063248038,-2.954055786
1494,1.572637796,0.301175982,6.924444199,-11.09264469,-13.88937569,9.118780136
1495,1.873510242,-0.361964434,7.447431087,5.631217003,-20.61106491,3.081699133
1496,3.221747398,0.136157334,7.620760441,19.48325539,-21.44148636,-4.499851227
1497,4.062544823,0.854993701,8.945746422,29.55188942,-21.57094955,-6.490673542
1498,4.894108295,1.564331293,8.830840111,31.59354973,-25.64613724,-5.169249535
1499,5.818675995,2.406638384,9.347061157,24.48802185,-36.57566833,3.620200396
1500,6.199998379,3.412087917,9.652564049,4.932805538,-47.07213593,15.51619339
1501,6.23561573,3.070286989,10.20776176,-10.67664528,-54.56759644,24.70780563
1502,6.744370461,2.132499933,9.803537369,-21.67391396,-56.15600204,25.1685276
1503,8.645785332,0.752905965,9.958084106,-21.95120621,-52.75405884,24.50565338
1504,9.166838646,-0.048862893,9.753593445,-23.22690582,-35.11018753,20.14757538
1505,10.01781464,0.368994921,8.281967163,-20.88973999,14.36853218,5.675716877
1506,11.70382977,1.054538131,7.934055328,1.089637399,63.24810028,-2.591593742
1507,12.20644474,1.668338656,8.190387726,10.57921314,89.9029007,-1.252612472
1508,10.82860756,0.915255964,8.3463974,17.35466576,129.7601318,-1.603535056
1509,7.097093105,0.527840734,7.553542614,27.91100693,158.2155762,-3.058107853
1510,4.527721882,-0.409277767,7.940389156,23.84535027,211.9221344,-11.05632687
1511,5.3370924,-0.567940295,9.441545486,-15.54268456,255.9942932,-17.0082531
1512,7.228287697,0.302547246,9.361844063,-40.62385178,281.6037292,-8.628488541
1513,9.451948166,2.509967089,8.06816864,-51.39435577,316.7307434,-1.867427111
1514,10.46892834,3.019448996,7.324794769,-71.95915985,306.0371704,4.613725185
1515,8.016862869,1.154646516,5.703639984,-96.39453888,265.6893616,-1.149680972
1516,6.096125126,0.087633759,4.208555698,-93.58776855,262.2817993,-15.54978275
1517,4.58885622,-1.982781529,5.728425026,-80.92409515,231.9204712,-14.71381187
1518,3.061794996,-3.971717119,5.857920647,-64.52324677,198.2143097,-8.335530281
1519,0.044569135,-2.618191242,5.075851917,-11.34929562,175.9217377,-2.344804764
1520,-4.410562515,0.659200251,4.714085579,26.51042938,147.516449,9.107562065
1521,-9.303459167,2.294737339,6.36662817,17.16036415,112.7383423,16.23978806
