PacketCounter,Acc_X,Acc_Y,Acc_Z,Gyr_X,Gyr_Y,Gyr_Z
669,2.114686251,-2.357107878,10.62592983,-40.15024185,28.14346313,-0.028660854
670,1.912371278,-3.384165049,9.244653702,15.13984871,28.4618206,7.985629082
671,3.110863924,-5.093269348,11.34892368,29.50522232,41.97422791,-1.447361231
672,7.850855827,-3.890595675,9.968514442,42.51544952,23.52257538,-4.517170906
673,9.90713501,-2.632280827,9.127250671,50.55004501,9.54519558,-7.231916904
674,9.32442379,-1.66732192,9.509271622,43.4835968,19.77399826,-12.01304913
675,13.31128216,-1.329562426,9.393630028,51.27070618,-16.97156715,-12.83409882
676,18.83971214,-0.191283762,8.77779007,80.18199921,-147.0366821,5.339822769
677,4.54489994,-1.1197052,8.605209351,56.630867,-101.7700729,30.00956726
678,-4.771661282,-0.192277983,7.730419636,40.52769089,-169.3792572,19.82304955
679,-7.581142902,0.517362058,7.124761581,53.17629623,-224.2480011,27.91840172
680,-13.25276089,-1.327870607,10.38391113,32.8652153,-200.7880402,17.65151978
681,-8.945039749,1.09218514,10.71285248,-19.69134903,-140.8019562,6.420787334
682,-0.648657262,0.150265127,12.60935116,-65.23480225,-112.9833755,8.198101044
683,1.480148911,-2.342404127,14.22046375,-77.78694153,-72.33844757,-1.151592851
684,0.443525434,-3.030573368,14.56695175,-51.87726974,-57.27639008,-13.11630249
685,-0.36045742,-1.526168466,15.09462833,-26.16187668,-59.07520294,-21.01942825
686,-2.945633888,-1.115258574,13.34738159,-10.21396446,-77.27321625,-8.385113716
687,-2.976125717,-1.808848023,11.60539818,1.920788646,-94.26342773,-3.310634851
688,-1.169618845,-1.903661847,10.35298347,13.11008263,-104.2986526,2.043876886
689,-0.983407497,-1.688361764,10.04468346,22.70165443,-115.3896255,7.265852928
690,-1.517992735,-2.993641853,10.73811531,18.55673218,-114.8945999,6.418177605
691,1.119798422,-3.012458086,11.5716629,25.02914238,-107.3906479,4.034422874
692,2.017156363,-1.831562996,11.61857986,34.5304184,-112.3195419,-2.027023554
693,1.482167721,-1.347340345,11.45322704,24.32017517,-121.3496628,-8.520552635
694,2.525956869,-1.252607822,10.95336437,23.03925514,-122.5913773,-3.844549656
695,2.616022587,-2.063568592,11.12317562,33.25050735,-113.1593704,0.806807578
696,3.13045907,-2.371709347,11.07267094,38.65778351,-103.7047501,1.825630426
697,3.586352348,-2.508634329,11.28258705,30.23445511,-97.85643768,1.15286386
698,3.75548315,-2.758918047,11.37980556,25.2583828,-94.22006989,2.899589539
699,3.879212379,-2.225831509,11.45677471,22.73977852,-91.16925049,6.387988567
700,4.225450039,-1.566076636,11.06144619,16.08755875,-89.62225342,5.866946697
701,4.537475109,-1.479266524,10.69500351,23.13318443,-87.56760406,5.765233994
702,4.540104866,-0.759049237,10.32712746,25.52861977,-80.58657074,3.520380974
703,4.303287983,-0.319857001,10.1994772,15.28978157,-71.35770416,3.777028561
704,5.216375828,-0.732386768,9.580071449,6.933732033,-59.02348328,2.873479605
705,5.64932251,-1.669939756,9.201926231,9.423701286,-47.81858063,1.680661678
706,6.071738243,-2.139785528,8.602272034,14.14705467,-39.89021301,-2.922735214
707,5.907922745,-2.017753363,8.486950874,15.00117207,-26.06250763,-9.365405083
708,6.387202263,-1.389223933,9.343749046,16.04615593,-11.6981535,-15.69638062
709,6.01757288,-0.782828987,10.26887417,20.2192173,-4.221149445,-16.28224945
710,5.435422421,-0.496622801,10.40034485,24.41566849,-5.674469471,-9.857175827
711,4.919974327,-0.290738583,9.868695259,29.33841896,-10.25492382,-0.481866211
712,4.806809902,-0.592097402,9.746702194,25.41888428,-14.90593147,1.998456359
713,5.149301529,-1.239226222,9.332167625,25.96919823,-14.27154255,-2.299605131
714,4.878624439,-1.121561408,9.068936348,26.47540855,-8.208984375,-7.119878292
715,5.116440296,-0.514791131,8.69737339,23.90156746,-3.594815254,-11.33834839
716,5.436398506,-0.190185815,8.242287636,20.33810997,-1.732805252,-14.06940746
717,5.066174984,0.077687189,7.798108101,18.59992409,3.239571571,-16.71233559
718,4.8920784,0.000779636,7.771101475,22.82176399,9.748922348,-18.91318321
719,4.750221729,-0.149922967,7.786118984,28.94113731,20.14678001,-16.86010933
720,5.238043785,-0.368823171,7.530488968,31.8983593,26.44134521,-15.77549553
721,5.0542202,-0.36103186,7.512001991,31.85904503,32.00325775,-13.29454136
722,4.475529194,-0.575851023,7.414148331,30.683918,33.55324554,-11.3744688
723,4.6529212,-0.631550193,6.716668606,30.85754585,38.19525146,-13.35345554
724,4.284748554,-0.737251997,6.277281284,29.73574448,48.0017128,-15.6918335
725,4.268594742,-0.122460179,6.633422852,21.18461609,55.79697037,-20.16778564
726,4.34105444,0.971999943,6.889957905,18.4159584,61.29697418,-20.70983696
727,3.542497158,1.570779204,7.943375111,10.8384285,65.80809784,-22.88691139
728,3.443092585,1.535530448,9.208901405,7.672275543,63.97328568,-22.70668411
729,4.24174881,1.389013529,9.579044342,2.630782127,55.29698181,-17.98911476
730,4.877563,0.685166538,9.012708664,-7.466671467,43.88500977,-14.10047531
731,4.935848713,0.033262916,8.22977066,-13.92586422,37.80902863,-10.55608273
732,3.618774414,-0.43949002,8.212696075,-17.23570251,34.23181534,-11.3311224
733,3.694990635,-0.883749068,8.68205452,-10.03811264,26.61759377,-13.81050301
734,4.632098198,-0.325518817,8.713905334,-7.598901272,7.827616215,-16.14781761
735,4.702205658,0.001212149,8.089612007,-7.579509735,-5.348577499,-14.53680801
736,4.857060432,0.189917818,7.607462406,2.680428267,-5.299732208,-12.80542278
737,5.606248379,0.411625534,8.440235138,11.65422153,-12.56451607,-7.250797272
738,5.222119808,1.682385445,9.093818665,0.518754482,-25.07068443,-9.659252167
739,6.353953838,1.445149899,8.81526947,-17.21301651,-29.92047119,-8.377105713
740,5.018413544,0.577764869,8.18048954,-31.0552578,-26.13010025,-0.706402421
741,5.376810074,0.140270054,7.393320084,-19.32510948,-29.31177711,-3.090736628
742,4.441588402,-0.098003887,6.981895447,-8.441951752,-36.57206345,-7.473683357
743,3.53161931,0.788011909,6.708919048,16.35587883,-30.56849861,-10.62616825
744,5.536065102,0.375422597,6.744413376,44.87338638,-7.436304569,-6.380349159
745,4.986338139,-0.541787088,6.401377678,50.35908127,-15.01966286,-0.198692441
746,3.192615747,-1.370240092,6.137900352,40.22738266,-31.405056,0.488585949
747,3.615474224,0.341589689,5.632056713,21.31907272,-40.57899857,-3.853023291
748,2.784835577,1.238089323,5.696405411,26.55416298,-50.82766342,1.829721689
749,2.294332743,1.960769176,5.930176735,35.02425003,-54.66109467,-1.191225648
750,2.26393795,1.66736865,6.770931244,35.97280502,-52.60209274,-2.946219683
751,2.908720732,-0.07756263,6.706053257,37.63671112,-63.42098999,-0.253967613
752,2.534716368,-0.642430723,6.964571476,40.71033478,-74.16543579,1.299755692
753,2.216189623,0.628387332,6.896647453,37.0279808,-75.10094452,-6.366233349
754,3.113518953,1.854531169,6.838050842,34.07325363,-75.70880127,-10.29786396
755,2.328462124,2.200119019,6.471055984,33.65071106,-65.87445831,-11.36347675
756,2.685485125,1.30893445,7.04271698,35.25749969,-55.99089813,-3.5649333
757,3.588733673,1.724375367,7.088335514,25.7624588,-48.70458221,6.102874279
758,3.399141788,1.524607182,7.71473217,29.74447632,-39.22956467,10.93867302
759,2.567587852,-0.606671512,8.303092957,34.51628876,-32.19032288,7.855164051
760,2.588148832,-0.998740196,8.252799034,22.83677101,-26.78278923,2.175391912
761,2.191173553,1.01438725,7.986897945,10.0037117,-15.22660255,1.67553997
762,4.092009544,2.443386555,7.755922794,6.604717731,-9.137449265,0.876345277
763,4.045249462,2.472776651,7.756295204,6.893886089,-8.597471237,3.822665691
764,4.61770153,1.71751523,8.501428604,6.551306248,-14.98618507,3.773567677
765,4.522972584,1.678561926,9.022058487,10.42664528,-18.03468704,0.810009301
766,4.953272343,1.615982652,9.357506752,12.07419395,-16.59363365,-1.533652067
767,5.880296707,1.877406001,9.713260651,8.212770462,-19.99184608,-3.797216892
768,6.558625698,2.13648653,9.23379612,6.073635578,-22.67956734,-6.036875248
769,7.587539196,2.498186588,8.52011776,-1.819170952,-20.66175079,-8.757242203
770,8.375465393,3.658036709,8.608845711,-12.1819582,-23.63443947,-7.726719856
771,9.547311783,4.288379669,8.332556725,-21.71641541,-34.45090866,-0.676063955
772,10.11122513,3.456933737,7.80467844,-29.71051979,-41.6521492,12.81202507
773,11.36893845,3.116004229,6.375124931,-46.74614716,-38.73633957,18.74151993
774,9.218035698,1.777267575,6.124056339,-79.97797394,-15.03501701,16.38821411
775,4.988191128,-0.02790793,7.619442463,-82.99764252,18.7832756,11.81326294
776,7.329069614,0.162648886,10.11009312,-51.80947113,67.45507813,11.77662086
777,11.12853909,0.278256893,11.22777081,-43.96421432,77.80511475,7.220713139
778,10.55190086,0.416539788,8.627796173,-35.84705734,88.98609924,3.767180204
779,12.37590313,-0.353781581,6.339639664,5.491761208,104.5912933,3.847080708
780,12.23397064,0.833629131,5.484170914,25.6130619,122.9478607,-3.399864435
781,11.33403587,2.221026897,5.906300545,11.31372261,134.5023499,-6.783665657
782,11.58085537,2.209372282,4.808618546,-4.259635925,124.0749741,-0.374388337
783,9.459515572,2.142534494,3.716878414,-14.83112431,112.9063721,4.928205013
784,7.693309307,1.77872622,3.490365744,-25.68831062,112.3096313,7.9593606
785,4.918671608,1.694209218,5.65889883,-17.07285881,142.411377,6.102534294
786,3.004661083,1.66133976,6.469350338,-15.64729595,209.9397888,2.872560978
787,1.318109274,1.705636859,7.075424194,2.852725983,252.8547821,-0.779967248
788,1.189560652,2.489537954,6.908417225,-18.0753746,276.9563904,5.419550896
789,-0.201123506,2.167627335,6.029050827,-30.51124763,272.6072388,13.15169334
790,-1.805582523,0.876158535,4.833374977,-20.72049141,247.842926,12.64650631
791,-2.24588418,-0.465039402,5.49809742,-11.56797409,221.7077637,15.58522797
792,-2.070496798,-0.331508607,7.069432735,-7.242641449,194.5956116,10.42610645
793,-1.499629974,-0.410159737,7.200357914,-4.689615726,172.7089233,7.056152821
794,-2.541889191,-0.778932095,7.026965141,-2.823134899,147.9474792,8.326775551
795,-3.556783915,-0.702494562,6.608047962,-2.966753006,124.1275406,10.14149857
796,-6.559307575,-1.091361642,6.008192062,6.894138813,99.86697388,2.995466471
797,-1.151466608,-0.027102521,6.842730522,4.106632233,66.75941467,2.365978241
798,-2.258963346,0.807677746,6.274067402,10.52735233,35.98441315,1.338968158
799,-3.561255693,0.800639331,7.169391632,16.19991684,17.41776466,-1.148373246
800,-4.475333214,0.55037719,8.620631218,13.93080616,-9.431616783,-0.412249595
801,-3.872615099,0.120859444,9.433572769,1.887232542,-28.25401306,1.603071451
802,-2.899117947,0.947527826,9.875711441,-8.979027748,-47.19718933,1.780449152
803,-3.139348984,1.714721441,9.699421883,-10.20677567,-67.47834778,0.981667578
804,-2.767734528,1.583439469,8.964956284,5.052227974,-80.4230957,-5.636345387
805,-2.426357508,1.69062829,9.154316902,19.92515564,-99.07736206,-8.75349617
806,-2.452275515,1.649667025,9.81598568,29.99895287,-121.5522995,-5.615036964
807,-1.127334356,0.642322838,10.15888119,23.08049774,-138.6926727,0.105358772
808,-0.85782665,-0.132124603,10.43674469,14.02683449,-150.0091553,1.677797914
809,-0.174465209,0.057342138,10.95390224,15.36044693,-160.1938019,1.297881842
810,1.10078311,0.044774342,11.56783772,24.34148598,-174.6613464,1.927381277
811,1.914524794,0.354122162,11.77572632,31.80330467,-190.2101135,1.69376564
812,2.744441986,0.985746264,11.85511303,32.73469543,-209.6765442,0.231018394
813,3.971366167,1.724109173,12.00468254,31.46120834,-228.9750519,0.80150187
814,5.406517029,1.289073229,11.14442062,35.7199173,-233.7663116,4.516083241
815,7.023862839,1.550063491,10.68153286,35.71958923,-191.1838379,9.926817894
816,9.239924431,2.983658552,12.45826149,-7.841001987,-140.0416718,22.75854683
817,9.3014431,4.819107533,11.50501728,-46.6019516,-109.5180817,26.79159164
818,10.21170235,1.909173489,11.37545681,-26.61751556,-81.05662537,29.23543358
819,9.103665352,-0.820869088,12.28444576,-6.53002739,-44.78238678,20.68086624
820,8.450523376,-0.164365426,12.45905399,-4.438798428,-11.79469299,0.833520889
821,8.941783905,-0.15920344,11.12299824,-11.62096024,12.98793125,-9.774319649
822,9.630858421,0.680153012,10.2389822,-12.39532375,37.81199646,-4.508257866
823,10.01951408,1.604127526,9.387639046,-11.46097279,47.60851669,0.801127255
824,10.58536911,2.807681799,7.225705147,-30.61980247,36.1723938,1.276002884
825,9.60567379,1.527175784,6.331319332,-46.52112198,31.52751541,4.645498276
826,7.834630966,0.916268826,6.271748543,-49.00224686,15.61290073,6.692053795
827,5.76009655,0.083025657,6.218361378,-47.28155899,7.804569721,9.486774445
828,4.026687145,-0.974147022,6.495288849,-50.75697327,15.033494,9.363964081
829,3.625137806,-1.323481441,6.161295891,-43.10182571,27.56898689,2.444620132
830,1.643790364,-0.796254396,5.765002251,-72.34036255,71.47963715,-5.256277084
831,2.078161955,0.278701901,4.280763149,-68.93496704,93.3024292,-1.358408451
832,1.01205647,-1.406922579,4.098599434,-58.34526062,91.47698975,11.23747158
833,2.111346722,-1.494608879,4.907829762,-42.60705948,82.85749054,9.579606056
834,1.651908517,-1.662232995,6.439184189,-23.71735954,75.21302795,7.918936729
835,1.336431861,-1.027567267,6.742869854,-20.90449715,62.71442032,5.170752525
836,-0.975415885,-0.609975159,6.117013454,-12.21491718,51.1338768,2.3207829
837,-0.11908219,-0.195318013,5.790783882,4.825934887,36.0320282,0.135165244
838,0.294138819,-0.833189487,5.889853001,16.21090508,16.07533646,5.812306881
839,0.218622983,-1.106837153,7.08694315,9.515717506,2.388813972,3.625664711
840,0.827444255,-0.917990267,7.246761322,-8.018465042,-14.6600771,11.35915279
841,1.475054383,-0.90228653,8.011580467,-22.99685478,-29.0131588,17.9786129
842,2.191169977,-0.349685997,8.238924026,-26.54195595,-43.45703888,17.81248856
843,2.036071062,-0.866089046,9.098443031,-5.540848255,-57.96389008,5.842896938
844,1.609723568,-0.389223278,9.393817902,12.07026768,-71.39533997,-7.459774017
845,0.746403635,1.01284039,9.352087021,18.70131683,-75.55773926,-9.496343613
846,0.386387527,1.156542897,9.613973618,20.56250191,-81.53660583,-7.4647789
847,1.084056973,-0.284190059,8.924576759,31.477211,-88.76461029,-8.206965446
848,1.699256182,-1.54115653,8.98328495,42.16328812,-88.81351471,-13.01291943
849,1.728167772,-1.44927752,9.160097122,54.34046173,-88.89585876,-16.44576454
850,2.997231483,-0.830916822,9.170806885,51.82836914,-83.80844116,-14.36081123
851,3.921259642,-0.573593259,9.139273643,41.08572006,-78.6933136,-11.86730099
852,3.797718048,-0.275945365,8.948904037,35.15779495,-67.47689819,-12.97531796
853,3.843149662,-0.4778198,9.179343224,31.918396,-63.489151,-13.0274601
854,2.670454502,-0.102654129,9.455791473,24.48908806,-50.5592804,-10.30529785
855,3.763019085,0.947365999,9.451846123,1.576187968,-50.2773056,-8.766936302
856,4.537180901,0.591215849,9.69807148,11.77693176,-44.26807404,-8.38354969
857,4.678283691,-0.42614302,9.677280426,7.489055634,-47.52309036,-7.659016609
858,5.149175167,-0.798801661,9.086038589,11.22260189,-51.11914063,-3.185892344
859,6.259509087,-1.174432397,8.467992783,10.45416355,-55.41164398,-3.529751062
860,7.936418533,-0.572517693,8.598350525,12.68017483,-64.12495422,-4.737319469
861,8.52824688,0.296228379,9.224451065,12.40335083,-57.47766876,-2.726440907
862,8.690069199,0.314321369,9.046711922,3.143137693,-52.34343719,-2.372488737
863,8.903796196,-0.382745892,8.902411461,-2.867513895,-42.67362976,-4.070716381
864,10.27716351,-1.300686598,7.567348957,-7.543438435,-28.51124001,-7.087953568
865,8.97527504,-0.952789187,6.798217297,-5.479941845,-24.80189514,-9.753778458
866,5.187041759,-0.515226007,7.655321121,-7.47683382,19.19839859,-9.361074448
867,6.864763737,1.031392336,10.25581551,-3.95037961,69.33216858,-8.588983536
868,10.1475668,1.585401535,10.29640198,-3.049503565,98.70623016,-14.42719364
869,10.99025059,2.487233162,8.530258179,-10.09965515,96.08382416,-10.99360657
870,10.03491497,1.872478008,7.838722229,-4.731319904,100.3450623,-0.696600497
871,10.51130676,1.448510528,6.258452415,-0.114466779,94.68434906,-2.139406681
872,10.61566734,0.951404154,5.022696018,-5.832338333,91.4910965,-2.126852036
873,9.570979118,1.683150768,4.208286762,-7.900761604,82.63929749,-1.567957759
874,6.250726223,1.670991302,4.528214455,-20.83996201,77.30490875,-1.304317832
875,4.132302284,1.010093927,5.09208107,-32.1265564,101.6787415,-1.885157466
876,4.321670055,0.008469582,6.822023392,-43.06565857,182.1629181,-1.657666683
877,2.981470823,-0.188116997,7.265789509,-49.10539627,262.874939,-3.963284016
878,0.716056287,0.337695211,5.911343098,-55.25557709,263.6915283,-3.339508057
879,-1.5661937,0.783076227,2.155041218,-45.67993927,257.1651306,-2.484504461
880,-2.284958363,-0.266942292,4.109810352,-14.49481583,241.1633301,-2.70224762
881,-0.500899494,-0.641552746,5.154117584,-7.229153633,208.4412994,6.100029945
882,-1.40950644,-0.464792758,5.477822781,-13.70540524,184.2201691,3.637575626
883,-2.939305782,0.135917261,5.84086132,-13.29239082,171.2754364,3.929979801
884,-1.210749984,-1.222999334,7.528754234,-28.5291748,153.824234,8.556400299
885,-2.390627623,-2.413683891,7.039157867,-30.96717262,115.1073914,6.339671612
886,-3.276148081,-1.875824928,6.982907295,-23.35352707,85.73862457,0.752387524
887,-2.647094011,-1.873370647,7.366265297,-8.1816082,73.17205048,-0.789628923
888,-2.300516605,-3.379114628,7.448256969,10.64876747,68.17773438,2.023648739
889,-5.126843452,-1.748102903,8.449263573,-3.502588987,46.60499573,0.307719707
890,-4.735630035,-1.072003245,10.4035635,11.72803116,72.64657593,-5.475446701
891,3.126489878,0.389123291,5.379535198,9.535277367,-40.24617767,8.471857071
892,-4.527430058,-1.40942049,7.325925827,14.55560112,-26.65844154,7.557302952
893,-4.774682999,-1.686581492,8.987158775,15.97308254,-49.65247345,1.954581141
894,-2.454490423,-0.674350739,9.301347733,15.71334076,-73.695755,-1.78207767
895,-2.65403676,-0.627770603,9.670460701,24.67546272,-88.20245361,-6.269637108
896,-2.462347984,-0.93718189,10.15658092,35.74995804,-98.85971069,-7.815636158
897,-1.817350626,-0.852012634,10.25752258,43.31879807,-113.8616104,-7.697993755
898,-0.785149574,-0.752660871,10.65627098,42.06965637,-131.266922,-6.722106934
899,-0.11972478,-0.458787203,11.16393948,40.83350372,-145.0420227,-6.357721806
900,0.250469983,-0.357890069,11.29342461,41.59000397,-143.4088593,-4.224353313
901,0.715317011,0.153408021,11.15431786,42.52222443,-136.3982239,-0.095913656
902,1.458635807,0.587086201,11.39708042,41.15462875,-129.2273865,4.754236698
903,2.230454683,0.820190966,11.57446861,35.70201492,-127.3631821,7.903294086
904,2.880105495,0.89991039,11.71153069,26.03921509,-130.0060883,7.923621655
905,2.520777225,0.636809289,12.5193243,12.24213505,-132.9202118,5.67880106
906,2.37620759,0.102145068,13.13196087,0.28664121,-125.6540756,0.288536668
907,3.89391923,0.74313432,13.36744499,-4.52241993,-135.4630127,2.431462288
908,4.43347311,0.427556276,14.10506535,-7.427539825,-132.0916443,4.363245487
909,5.927187443,-0.230956376,14.24705601,-3.232861519,-106.1608887,6.875613213
910,6.842956066,-0.926880658,12.57138348,-11.01360989,-94.20334625,9.934402466
911,5.953357697,-0.011862477,11.25860214,-14.50988293,-81.83695221,4.171315193
912,7.449791908,-0.592475593,10.1923275,-33.38067245,-44.00252533,3.348365068
913,8.580429077,-0.14305456,8.752471924,-24.17653084,2.362859726,4.726173878
914,8.287415504,-0.328130424,9.654874802,-22.91014481,59.18068695,5.38176012
915,7.319422245,-0.282109886,10.727108,-27.30578995,81.25047302,3.971447706
916,6.778409958,0.93713367,10.22169113,-39.46092987,78.98674011,-2.948371887
917,6.910496712,0.114338994,9.274204254,-43.68744278,69.6368103,-7.029165268
918,7.051652908,-0.639171779,9.026058197,-27.40173149,57.81102753,-3.370858908
919,6.36875391,-1.24237442,8.925030708,-19.98328018,38.86561966,1.483555198
920,5.717105389,-1.342337489,8.810388565,-10.86040592,32.48952866,3.723646641
921,5.35925293,-0.156652331,9.760955811,-19.17470932,46.93824768,4.87111187
922,4.148234367,0.427143663,10.58583736,-48.86723709,72.70721436,7.497355461
923,1.525847435,0.462281764,10.65877533,-65.63939667,55.39467621,4.124475956
924,2.115619421,0.932932198,9.89121151,-56.1856575,48.50401688,5.650675297
925,2.342548847,-0.423612654,3.041126013,-21.92285347,42.23685074,0.07411734
926,2.022959948,-0.634821594,2.937078476,-5.293496132,47.05674362,7.57408905
927,2.953077793,-1.237321377,4.938342571,14.74653053,25.41981506,10.91786671
928,2.561356783,-1.900754213,4.965303898,21.00511742,5.812385559,11.23169899
929,1.802223802,-2.514737844,5.08553791,27.87574768,-13.29826641,10.49931908
930,1.368422627,-2.383821726,6.078746319,27.76280975,-43.52313232,6.808963776
931,0.672012627,-1.23064816,7.701552391,12.64129066,-60.62324905,7.337018967
932,0.18256785,0.263464123,8.050853729,-3.685306787,-68.88002777,5.879795074
933,1.426217198,0.18732512,8.228970528,-6.293029308,-80.09299469,5.218008041
934,1.283398032,-0.598436475,7.146818161,-0.44278273,-101.1314392,-1.634123683
935,0.812803388,0.100105658,7.05830431,6.932070255,-113.8127441,-10.30058479
936,2.042669296,-0.259150714,6.85374403,4.245727062,-118.0340576,-11.57492733
937,3.085886002,-0.306773275,6.754697323,16.40140343,-124.0053635,-16.45014191
938,2.516096354,-0.920256436,8.328390121,34.20287323,-130.1543274,-19.89735794
939,2.02788806,-0.289104432,7.922396183,37.81302643,-130.0623016,-23.6618042
940,3.262384176,0.606148899,7.651642799,38.83290482,-129.8407288,-21.57901573
941,3.141830206,0.722173214,7.164872169,39.96603012,-123.4823761,-19.35697556
942,3.550996542,1.036242604,7.756198406,38.94588852,-112.2816086,-12.0406599
943,3.37426734,0.46874401,7.664808273,23.06184387,-94.9508667,-3.178630114
944,3.096535921,-0.85155344,7.178480148,21.88553238,-69.84050751,-1.001923561
945,2.535263062,-1.510741711,6.793524265,35.30040359,-52.75495148,2.748954058
946,3.055988789,-1.320456028,7.863400459,14.800354,-38.02867126,5.155860424
947,4.171201229,0.120133817,7.598644733,3.03169632,-39.25601196,5.890576363
948,4.322987556,-0.104981922,8.63168335,-0.348552376,-39.38267899,4.799379349
949,4.08624649,-1.265335202,8.32526207,8.080989838,-39.50889969,8.018071175
950,3.432921886,-1.697188973,8.33864975,21.80446434,-30.36767006,5.710680962
951,3.838323355,-1.507632494,8.719268799,30.76491356,-28.3611908,-0.546885669
952,5.255729198,-0.441523671,9.063024521,24.72808456,-23.96375275,-6.967785358
953,6.758731842,-0.329950899,9.029182434,21.41383743,-25.43008804,-8.51419735
954,7.928147793,-0.521728992,8.812078476,13.33319378,-23.82600784,-6.54789114
955,8.814994812,0.00983407,8.622718811,10.57482815,-17.72694969,-4.16915226
956,9.31193924,1.620335102,8.428237915,-1.205436349,-4.578886509,-8.037741661
957,9.795541763,0.807950616,7.899692535,-6.768163681,2.914786577,-17.24406624
958,10.72863388,-2.856242895,6.942289352,16.76537323,10.13400364,-26.89531898
959,10.34354019,-1.540441871,5.152778625,42.14306641,18.79092216,-21.08277512
960,9.139257431,1.076024771,4.197922707,40.79616165,38.38579941,-12.85323048
961,6.157097816,1.204586864,5.224121571,6.778474808,52.42992783,-6.782976627
962,6.405123234,1.568985224,8.381022453,-8.836960793,74.63611603,-14.08425331
963,9.758038521,0.771647334,9.742635727,-9.306153297,76.29045868,-25.21168518
964,11.91722298,0.539893985,8.401288033,0.397121787,103.4990082,-27.86144447
965,10.74697399,1.485124946,9.998483658,10.52858543,90.24139404,-29.644104
966,10.49304676,3.770458698,8.037877083,9.498961449,89.1491394,-19.71761131
967,10.33339596,2.281164885,7.413030624,6.078979492,112.5310822,-7.631095409
968,9.705756187,-0.077945523,7.514168262,22.00780869,117.8070755,-4.577810764
969,9.630801201,0.699983239,6.56307745,21.65510941,104.9395981,-9.452726364
970,8.725404739,2.276496172,6.576135159,12.90541553,104.0572128,-7.491903305
971,6.988976955,2.671878815,7.846105099,16.42609024,142.6832733,-5.890197277
972,4.795774937,3.056673527,9.995714188,-3.02937746,276.3287964,-9.221033096
973,2.19077611,2.167229652,5.313706875,-66.8213501,291.4251709,-6.426189899
974,-1.077789307,0.449017793,3.540402174,-101.6123047,240.69104,-6.931197166
975,-2.331317186,-0.711191893,3.057683468,-79.51659393,221.0989838,-5.76961565
976,-0.897022843,0.288068146,4.536779404,-50.88227844,207.4333649,-7.172133923
977,-1.139253139,0.872606993,6.675300598,-41.42843246,180.3213501,-8.257213593
978,-2.108443022,1.541978121,6.153810501,-36.03233719,142.5308228,-6.768083572
979,-3.036344767,1.040933251,6.132428169,-34.97744751,120.0333481,0.23385039
980,-3.438172817,-0.075373009,6.131814003,-27.88980675,104.3636322,5.450063229
981,-3.133703709,-0.653367698,5.684394836,-26.74733353,81.13517761,9.391287804
982,-3.173716545,-2.136167765,5.572212219,-26.78463745,60.32830811,12.90209579
983,-0.814353168,-1.34147048,8.573408127,-23.97670937,44.30033112,11.91751575
984,-2.066839933,-1.275487781,8.841103554,-22.34918785,25.5596447,10.86651134
985,-2.452236891,-0.231831223,8.27665329,-4.373574257,4.819253922,6.299156189
986,-2.363095045,-0.170216262,7.716023445,17.17177963,-15.74356747,5.171361446
987,-2.081981897,-0.84106493,7.815340042,22.2031498,-46.78284454,2.806352377
988,-2.097625256,-0.895145774,8.575005531,21.66067123,-71.40400696,3.785715103
989,-2.37905097,-0.398308426,9.382029533,18.08457565,-89.49110413,3.021586657
990,-2.13905549,-0.319027573,10.12557983,18.70670509,-104.652298,-3.890775442
991,-0.991859794,-0.057140365,10.26480961,28.66648483,-122.4065018,-6.975368023
992,0.148874551,-0.251227081,10.53312588,35.11573792,-141.9309082,-1.77896142
993,0.653766096,-0.053741787,10.86874008,30.64648247,-163.6131744,3.566782475
994,1.063522577,0.625528812,11.17047691,28.44197273,-176.0138245,5.511145115
995,1.249731302,0.971198142,11.15830326,24.04579926,-174.1338654,10.58895302
996,2.211209297,0.634482384,11.30262566,12.81903458,-166.9321899,17.56511879
997,3.577257156,0.159995958,10.93561077,2.420426846,-170.016861,21.56270218
998,4.928883553,-0.881805241,11.14947796,-10.21539021,-169.7513885,22.05505753
999,5.408434868,-2.714454174,11.95748901,-14.79929352,-159.1176453,11.61134434
1000,5.699920654,-4.016099453,12.05099583,4.459208012,-143.6558533,-8.212286949
1001,6.325946808,-2.523892641,11.7829771,29.39051247,-139.1315308,-25.78162956
1002,7.066530704,-0.018879324,12.75611782,39.77975082,-131.2323761,-28.31712914
1003,6.979539871,0.112165488,14.50949478,38.83866501,-115.1118851,-22.56723022
1004,8.241901398,-0.13742882,14.13586617,28.14940643,-91.08472443,-20.50945091
1005,9.204903603,0.267520547,10.28366852,20.58104706,-51.061203,-10.03282261
1006,8.571159363,0.590159416,8.423725128,47.23501205,-24.19210052,-5.697024822
1007,8.725189209,0.66433394,10.60388184,36.33146286,47.34034348,-7.54494381
1008,11.44017506,0.560011446,10.47110558,15.47218227,88.02936554,-10.00278664
1009,10.4675703,1.592212319,9.469266891,-7.635166168,53.99330139,-11.92210102
1010,10.70337105,1.744631052,6.866639614,-18.00557327,49.25059891,-22.84651947
1011,12.29949093,1.706262469,6.691965103,-15.56178665,50.88370895,-24.34066963
1012,11.6333437,2.126242399,6.073566437,-14.57339764,23.49407005,-17.5673542
1013,8.083078384,2.045280457,5.903795719,-27.30630875,-2.541338444,-12.98555183
1014,6.418493271,2.176932096,8.091711044,-46.98015594,-28.39899063,-9.718434334
1015,5.226576328,2.195356369,8.084243774,-23.53850174,-30.40405083,-6.605012417
1016,3.182175636,1.020426869,6.721436024,5.214155674,49.04629898,1.456331253
1017,1.45603919,-0.854430676,3.598143578,-48.44281769,109.7427826,-0.247008592
1018,1.83478272,-1.4281528,2.56830287,-57.54463959,104.9154816,-10.03197861
1019,2.039328814,-0.660460353,3.870770693,-36.60780716,86.35124207,-15.17344666
1020,3.529777765,0.681428611,5.891957283,-9.753142357,72.02296448,-9.611143112
1021,2.219252348,1.443721056,7.177811623,6.779072285,50.54484558,-3.573004484
1022,1.374391794,0.464923501,7.436065674,29.26599884,46.47156906,-2.112852097
1023,0.972059727,-1.057093263,7.491691113,22.7124424,56.21036911,-0.125337377
1024,0.004470449,-0.874593735,7.307880878,16.79191971,54.19664383,-2.071847439
1025,0.998161972,-1.388311267,6.881157398,15.88403511,46.25518036,1.412942886
1026,1.007224798,-1.423402071,6.154459476,8.630212784,38.20291138,-0.221615061
1027,1.068524241,-0.582446337,6.359972477,-2.947975874,23.39968109,-0.569653094
1028,0.473521382,1.060636282,6.83600235,-7.91344595,11.07855797,3.220933914
1029,0.27119261,1.098865628,7.140964985,-4.642062187,-10.56921673,9.289420128
1030,-0.012307448,0.297321588,7.009959698,-7.715590954,-24.93649101,9.665241241
1031,0.684016347,-0.362387031,6.811088562,-9.652475357,-30.88553238,7.280122757
1032,1.246703982,-0.044740416,7.441471577,-2.132014275,-41.68935776,3.085792303
1033,1.521571636,-0.929273486,8.041811943,16.58104134,-53.15839386,-1.086464167
1034,2.108477354,-0.950094283,8.648041725,30.93977356,-68.08556366,-5.799944401
1035,1.772360682,-0.288633496,9.076706886,41.36662292,-81.85706329,-12.67103672
1036,1.633705378,0.914382815,9.193142891,39.61680603,-87.36801147,-15.09996891
1037,2.094994545,1.861927152,9.455224037,39.79101181,-89.9329071,-17.57278442
1038,2.418471336,2.265048742,9.374282837,32.68650818,-85.33882904,-13.56590652
1039,2.363923311,2.749002218,9.459992409,15.99425411,-76.89484406,-3.793400049
1040,2.706531525,2.900735855,9.111263275,2.399249792,-66.8106842,3.623684406
1041,3.48613739,1.775934577,9.003666878,1.883358955,-61.28697205,7.610857487
1042,3.068022251,-0.044800557,9.290327072,2.223537683,-60.37646866,7.238134384
1043,2.928866386,-1.346010685,9.695496559,4.431818485,-61.6108551,5.078484535
1044,3.388083458,-0.89450556,9.996941566,8.341031075,-60.34689331,2.874659538
1045,4.16340065,0.035838548,9.647027969,12.15363598,-62.35926437,-1.294112921
1046,4.175597668,0.375365198,9.383611679,8.76209259,-58.48431396,-7.585230827
1047,4.527858257,1.092416286,8.788547516,8.903883934,-50.52146149,-8.359539032
1048,6.117976189,1.546482921,8.751226425,11.40638733,-40.76189804,1.440973163
1049,6.833589077,1.329393029,8.407039642,14.37341595,-56.09727097,12.81436348
1050,7.180191517,0.882494807,8.69209671,12.81842422,-55.05147171,16.7943573
1051,7.725385666,1.183164477,9.009652138,8.585481644,-50.30944061,14.87187481
1052,7.723463535,1.295999646,9.032004356,9.068807602,-53.71471405,13.11489105
1053,7.666374683,0.488031328,8.383896828,6.683051586,-45.81542969,7.074417114
1054,9.464798927,-0.022781789,6.620185375,6.207728386,-21.11734772,1.355317473
1055,11.18640804,-1.17549777,6.840783119,-2.257414579,5.452849388,-5.881855965
1056,8.246928215,-0.230736285,8.441936493,3.032454967,41.99435806,-11.29385471
1057,7.299509525,2.098748446,9.316090584,3.764595509,90.13864136,-13.99616432
1058,8.910668373,2.803223133,9.984810829,2.91433239,110.7150116,-3.314349651
1059,9.124317169,2.518167496,10.06490135,-13.66543865,91.44298553,-0.937312126
1060,11.3653841,2.447528839,6.57452631,-39.32451248,96.79302216,-1.99174571
1061,12.221982,1.128691077,5.375176907,-47.96874237,116.8413849,-0.898774564
1062,10.63615513,0.55058825,5.547354698,-48.64861679,116.1393509,2.026865482
1063,8.559075356,1.218441486,5.787032604,-42.85877228,102.556572,7.966301441
1064,6.839158058,1.925198555,5.554153442,-39.20718765,89.58785248,16.52908134
1065,4.472927094,2.073152781,6.081390381,-51.36294174,114.6155777,24.24337387
1066,2.922804832,2.147199631,7.561467648,-51.51279449,175.1796112,26.63879585
1067,1.775918603,1.151791453,7.66294384,-65.48205566,226.4827576,31.92534637
1068,-0.446448177,-0.069300674,5.744121075,-102.7572708,239.4499054,39.88712692
1069,-3.240509987,-1.875489712,2.955370665,-106.4066696,215.3646545,39.38713455
1070,-2.639535904,-2.616479397,4.348685741,-51.81612396,197.5852509,30.29827499
1071,-0.233850181,-2.485006809,7.179574013,-47.3915062,171.3603363,30.90331078
1072,0.643898427,-1.821299195,6.444196224,-30.07155037,156.351181,23.33607483
1073,-0.80914104,-1.675596356,6.960242748,-8.678799629,143.684845,16.18079567
1074,-1.627651453,-1.302392006,6.815767288,10.19719887,115.9290237,15.96881485
1075,-2.503976822,-1.321050286,7.260234356,32.21913147,104.1831436,13.07934093
1076,-3.354072332,-2.201158285,7.188738823,44.73748398,84.33395386,9.904733658
1077,-3.40956974,-1.570180416,6.778514862,22.92708206,68.21707153,5.046901703
1078,-1.360604525,-0.739963174,8.238541603,35.84537888,40.98345566,-2.953815222
1079,-3.220567465,-0.707728207,8.322066307,21.20504951,17.39226913,3.553944588
1080,-3.397883177,-0.550010145,7.891214848,54.15107346,2.101742506,-4.557724953
1081,-0.62935245,0.067745142,8.998744965,55.16443634,-29.78861046,-3.780614853
1082,-1.453598976,1.459501028,9.122429848,39.26374054,-46.49497223,-2.930349112
1083,-2.939662457,1.676688194,9.290060043,35.97061539,-48.51936722,-5.833277702
1084,-2.682555199,0.723839104,9.608627319,35.50880432,-59.72861862,-6.012223244
1085,-1.463155508,-0.494656056,9.259922028,33.80436707,-65.28560638,-4.720112801
1086,-1.125387073,-0.374765962,9.039599419,34.88624191,-69.85228729,0.080470435
1087,-0.912592232,-0.428200096,9.617275238,25.98558235,-76.11573029,6.274787903
1088,0.047404781,0.334754229,9.91852951,13.85764027,-91.40117645,6.227628231
1089,-0.385834962,0.719499946,10.36460781,4.862333298,-105.4207001,1.804632664
1090,-0.190946549,0.769584417,10.73753071,-2.40807724,-114.8237076,0.312764794
1091,0.367270052,0.521036804,10.67480946,-7.281676769,-123.7868118,0.653344989
1092,0.921943784,0.457689762,11.02608585,-8.552678108,-126.3672028,0.2607584
1093,1.608209372,0.650088072,10.87719536,-6.155613899,-125.6798096,2.715808868
1094,2.133275747,0.613675416,10.66223717,-4.266201496,-122.5346451,5.665183544
1095,2.357431889,0.377012938,10.22663307,1.186859965,-123.2738113,3.470123529
1096,3.05192256,0.081774972,10.35600281,7.666176319,-125.6865082,3.376743317
1097,4.231266499,-0.222932354,10.80588341,6.151244164,-116.7340546,4.869971275
1098,4.403030396,0.168568,11.38372803,8.224317551,-111.9973373,9.587140083
1099,3.879409552,0.660419703,11.74137878,10.14238453,-104.4186249,15.29145813
1100,3.648476124,0.377667606,12.35150337,-15.33740044,-93.93367004,14.77661037
1101,4.575272083,-1.642828465,13.18614006,-29.14297676,-79.79263306,4.242973804
1102,6.608142376,-2.792124748,13.75592327,-13.04677773,-69.46073914,-7.271037102
1103,8.271388054,-1.640320659,12.12354565,-15.96888351,-60.28066254,-8.62348175
1104,8.024620056,-0.648692608,10.44408512,-14.14965439,-27.93263626,-0.96902138
1105,6.78256464,-0.524674594,11.40873623,5.152620316,14.43586254,-5.079425812
1106,7.014273167,-0.695585966,12.00298977,-6.012150764,56.14481354,-8.237919807
1107,7.071555138,-0.960060716,11.28790283,-4.944347382,74.64846802,-0.611335933
1108,6.703523636,-0.673311234,10.37351418,6.292002678,77.74166107,-0.520243406
1109,6.207323551,0.063654266,9.472697258,-1.572318792,75.04315948,-11.19354057
1110,6.763433456,-0.951860249,8.867452621,-17.75001907,88.37069702,-20.54392433
1111,7.030508995,-0.568335295,8.305137634,3.241612673,78.42308807,-21.92077065
1112,6.202418804,0.591970265,7.516440868,11.34278011,42.27951431,-17.00410843
1113,4.137445927,1.831860185,8.035558701,-2.888433218,33.34143829,-9.171357155
1114,3.80642724,1.786221862,7.644145012,-8.785693169,39.01124954,-2.11556983
1115,4.749151707,-0.077100411,7.390471458,-25.61540413,45.25820541,-1.041896224
1116,4.639333248,-0.864103198,8.304820061,-39.89940643,58.11267853,-0.73289454
1117,2.428183794,-1.101266026,9.0558815,-63.56230927,65.98370361,0.582789361
1118,0.002991959,0.609621406,7.637200832,-82.19844818,69.97525024,-14.09156799
1119,2.236699104,1.375427008,4.001347065,-34.09394455,55.41176987,-15.27421856
1120,3.323198557,-0.021593645,5.947021961,24.06422615,48.66705704,-8.610747337
1121,3.581213713,-1.552805781,6.10761261,26.4118576,11.24550343,-7.370347023
1122,2.863072395,-2.209061861,6.750052452,27.1565094,-20.98920822,-5.706289768
1123,2.133199692,-2.685845375,7.277126789,29.21598053,-47.11909866,-6.310654163
1124,1.867809534,-1.970156789,6.300375462,16.29973984,-59.74588394,-8.607034683
1125,2.240355253,-1.114163518,6.406723022,6.137456894,-66.54325867,-4.986026287
1126,1.987641215,-0.425101548,6.920372963,-3.351168633,-88.36927032,2.995596886
1127,1.295707583,0.53930831,7.75463438,-11.26699352,-108.4184036,13.56044388
1128,1.804548502,-0.130227715,8.354484558,-35.82328796,-129.9007568,15.71706963
1129,0.806001842,0.758911788,7.732050419,-47.22511292,-131.9023743,-0.955202162
1130,2.130117178,-1.221901178,7.402713776,-36.86901855,-126.9920578,-21.53738976
1131,2.64081955,-1.680678487,6.819308281,-4.289740562,-117.7247086,-34.85641098
1132,2.042707682,1.35462451,6.30790329,7.146254063,-110.4011917,-29.32382584
1133,2.703874826,1.553778291,6.167523861,21.8671608,-107.830513,-19.46941757
1134,2.770749331,-0.068412028,6.831408501,34.48432922,-104.7802277,-11.74508476
1135,3.025563478,-1.692564368,7.091734886,39.05091095,-105.8661041,4.397596836
1136,3.032281876,-2.830584526,7.343246937,26.69409943,-101.6984177,10.12119865
1137,2.756305218,-1.82296741,7.748919964,8.864043236,-88.78384399,6.271670341
1138,3.415385008,-0.372268856,8.006071091,4.463490486,-79.54993439,3.541822433
1139,3.395288467,-0.082701862,7.869010925,12.61709404,-71.31908417,-2.181102753
1140,3.908300877,-0.802485466,7.333320141,31.7528801,-54.72370911,-8.099197388
1141,3.319460154,-0.490396708,7.86540699,42.14492035,-39.77645111,-8.958470345
1142,3.855796337,-0.005034517,8.587461472,37.33931351,-31.20574379,-7.864049435
1143,4.030254364,0.173022851,8.570849419,22.56949425,-30.51737022,-6.653086662
1144,3.441631317,-0.217053741,8.712864876,13.22642136,-27.48281097,-2.425914526
1145,3.953072548,-0.688770831,8.989809036,2.906195164,-24.10072327,0.504231811
1146,5.133196354,-1.212505221,8.664682388,4.990010262,-23.12317657,4.020580769
1147,5.771092892,-1.564678907,8.83108139,7.316297054,-18.4728508,4.446121216
1148,6.154241085,-1.457005858,8.921857834,4.847575188,-20.19527054,0.266084313
1149,7.842164993,-1.385473251,8.523848534,4.333064079,-13.964221,-4.121790886
1150,8.48897171,-0.910767972,8.116745949,14.77097034,-11.02799606,-3.48859477
1151,8.815529823,-0.050058,8.205767632,21.88030815,-5.696939945,1.489221096
1152,8.886073112,0.915538073,7.421030045,25.93026161,-1.901645064,1.681138277
1153,10.10346317,2.493107557,7.313839436,25.68731308,5.401174545,2.482369661
1154,11.60623455,2.171988249,8.334342003,16.25462532,16.93218422,6.654954433
1155,11.52742767,-0.123340622,8.285863876,21.41780663,35.46566391,-2.700555325
1156,9.679738045,-0.066518158,8.361867905,28.94285583,42.48665237,-14.82799244
1157,8.979416847,0.354327112,8.335103989,10.9791441,77.53105164,-11.05747604
1158,11.42517281,0.321940303,7.456616402,2.921164274,87.7842865,-10.85309219
1159,9.890423775,-1.072655082,8.307645798,10.27074146,79.45585632,-20.77619171
1160,10.79488754,-0.069175556,8.007843018,6.186583042,89.26487732,-25.47844696
1161,14.0568819,1.79759562,6.153243542,-4.783769131,92.10617828,-18.99261475
1162,12.82760429,1.985529304,5.787501335,-2.525501251,84.02513885,-8.973225594
1163,9.893699646,1.348612428,6.789135456,-4.528474331,78.13247681,-5.360815048
1164,7.469556808,1.015306711,7.47480011,-12.41567421,76.69443512,-5.060037136
1165,7.569001198,1.368745804,6.92993927,-13.60259533,69.53937531,1.22262466
1166,5.672814846,2.310379744,6.170219898,-2.039237499,97.93638611,8.561458588
1167,4.10545826,1.870398879,6.020035267,-8.48029995,156.9280548,10.27089214
1168,2.792757273,0.332149684,5.625528336,-7.475924969,217.9116821,9.272425652
1169,1.79580617,-0.404097915,5.612228394,-18.09695435,237.3266754,9.914692879
1170,0.262582541,-1.172936916,3.831805229,-65.64011383,241.1583252,15.83609962
1171,-1.323405385,-1.121775866,4.203647137,-65.22109985,228.2500458,19.42560387
1172,-0.216176093,-0.66012609,5.518917084,-50.93838882,205.4715576,17.58317947
1173,0.061440125,0.083079949,6.825860023,-39.96443176,181.3862457,18.02555656
1174,-1.169635892,0.375652373,6.417300224,-34.64943314,158.8542023,20.3694973
1175,-2.176724195,-0.64555341,7.131120205,-21.41788864,135.4331207,19.16435242
1176,-3.397812366,-1.342547655,7.032990932,-17.44324303,118.2644424,15.88896656
1177,-3.451372623,-1.134433389,7.27290678,-4.970287323,101.0838776,10.35684013
1178,0.232647419,-0.421435475,6.824122429,4.188969135,67.99401093,9.080793381
1179,-2.049913883,-1.665968299,7.160846233,5.454116344,35.79235077,9.030677795
1180,-3.037744522,-1.143634319,8.27849865,-3.416559458,18.05109406,6.621090412
1181,-2.743182421,-1.126367211,8.119488716,-0.729232192,-2.941644907,7.575719833
1182,-2.468205452,-0.896962881,8.144942284,14.43572998,-21.26353264,4.804550171
1183,-2.262257099,-1.237627387,7.839650631,36.50571442,-43.93017197,-4.909345627
1184,-1.933591485,-1.729762316,8.114456177,60.78279114,-68.24185181,-14.73228073
1185,-1.532846451,-1.54116416,8.867842674,64.26333618,-91.89465332,-19.99772263
1186,-1.070971489,-0.785278499,9.790604591,56.02565002,-112.3018188,-19.72518158
1187,-0.426088095,-0.668714643,10.09264374,45.0882225,-127.9925537,-17.72192001
1188,-0.077258155,-0.280111283,10.22568989,36.03615189,-139.3638306,-15.7980299
1189,0.701748073,0.388574511,10.74895477,32.91296005,-141.1352234,-13.58953762
1190,1.945617318,0.903863311,11.20774841,31.83508492,-149.8112335,-7.909871578
1191,2.696943045,1.202451468,11.54084682,21.56960869,-156.0052032,-7.350862026
1192,2.615691185,1.402785659,11.86424637,12.70518208,-161.8816528,-11.88199615
1193,3.024516821,1.363269448,11.80201626,18.14558029,-165.8987274,-14.84616756
1194,4.054570198,1.204110384,11.41428471,31.86501122,-167.7081757,-18.00408936
1195,5.844082355,1.134745717,11.09966278,35.5253334,-158.3008575,-17.24116516
1196,6.183419228,1.82434535,11.95504951,41.01728058,-137.6266479,-14.34428024
1197,6.058246136,2.072191715,12.61679649,48.05565262,-128.2089081,-11.15582848
1198,6.955895424,2.124655485,12.70159054,37.21687698,-112.7527313,-3.57541585
1199,7.765677929,1.562667131,12.05548573,24.82963181,-95.59265137,12.13835239
1200,7.893177509,-0.091562793,11.25889301,7.797596931,-64.91629028,16.56090546
1201,7.956645966,-0.563419104,9.782527924,7.729229927,-22.59125137,-5.176707745
1202,9.51885891,0.72831136,11.23080158,-18.6460228,6.35440731,-21.29352379
1203,10.6127491,2.046283245,11.59551811,-45.87526321,65.30382538,-24.24539757
1204,10.24938202,1.841170073,11.21249771,-19.87032318,82.95925903,-16.59004211
1205,9.949762344,1.277147651,9.647558212,-5.893894672,65.87835693,-8.08336544
1206,11.7386694,1.31021142,6.672007561,-13.74385166,53.94908905,-11.27464485
1207,11.85624504,2.149543524,5.915791035,-28.88624382,27.69120789,-6.309878826
1208,10.63536739,2.101467371,4.71961689,-29.89099884,10.63864326,11.1719923
1209,7.946353912,1.96503818,5.512282372,-36.21166229,10.04123211,18.77599716
1210,5.975548267,1.29857564,6.799993515,-68.18338013,9.64968586,26.50621414
1211,3.092821121,1.131737113,6.321867943,-85.59260559,19.83963585,31.10773468
1212,2.214193106,1.183219552,5.591645718,-95.98860168,21.89383316,38.32401276
1213,0.89556843,0.20503071,5.849110126,-82.62956238,16.77472115,48.48408508
1214,2.018716097,-0.729633272,5.175199032,-58.60567474,39.73994827,45.73445511
1215,1.803717494,-1.95188427,4.941808701,-44.49762344,58.6268959,42.14595413
1216,2.284963369,-2.434345484,6.183477402,-45.42668152,56.66385269,36.14828491
1217,2.236599684,-1.823144317,7.056446075,-38.41223145,54.65863037,32.8765564
1218,2.864062071,-0.896806538,7.512143135,-33.25588226,57.75170135,27.36877441
1219,1.191443443,-0.787117958,7.171931744,-18.10431862,58.97886276,17.69633484
1220,1.266533017,-0.631876588,6.998172283,-4.205015182,57.3598671,10.51838398
1221,-0.149475098,-0.992380202,7.330135822,10.62111282,49.08975983,6.223115921
1222,0.369416595,-1.426777005,7.012158871,22.54737663,41.59212112,2.378023386
1223,1.011226535,-1.676605821,6.325672626,23.81038666,27.06089783,-3.581017733
1224,0.615530729,-1.188503265,6.992388248,23.18325996,21.22391891,-7.690676212
1225,1.383789778,-0.10976363,7.387773037,17.89354324,6.872340679,-10.82999039
1226,1.163625479,-0.253795505,7.663887978,15.74158478,-10.11097527,-10.21944523
1227,0.398086667,-1.127300024,7.320769787,7.704461098,-20.34825134,-8.277142525
1228,0.706032574,-1.417805195,7.529075146,10.93253517,-34.44879532,-12.91794586
1229,1.288439751,-1.311007023,7.360785484,20.25252724,-52.83669281,-12.96571159
1230,1.604197621,-1.095221758,7.72308445,29.31532669,-64.30294037,-12.95443535
1231,1.988762856,-0.296607465,8.141057014,32.30530167,-75.27407074,-11.28457451
1232,2.005505562,0.926847816,8.481527328,36.03580093,-82.25447083,-7.981452465
1233,2.167518377,0.674485743,9.505834579,37.1861496,-87.30734253,-5.565700531
1234,2.190546274,-0.308494657,9.636246681,36.14938736,-87.95513916,-5.246057987
1235,2.146838903,-1.042089224,9.656212807,27.38765526,-86.45790863,-6.59252882
1236,2.376760006,-1.49373126,8.823944092,31.80977631,-83.75183868,-9.411284447
1237,3.042012453,-1.899237514,7.679940224,36.28107834,-85.20827484,-9.422968864
1238,2.266895771,-0.951480746,9.051136017,36.91709137,-59.45703125,-7.578379154
1239,2.982110023,0.138307706,8.352546692,36.65383911,-59.5536232,-1.615266919
1240,3.60510397,0.243898839,8.523209572,40.42676163,-56.47109604,0.723820686
1241,3.586568356,-0.904947996,8.958686829,47.44784927,-55.18383408,1.536195159
1242,4.056297779,-1.711337328,9.746336937,51.38880539,-51.19909668,1.357261181
1243,4.154350281,-0.870660901,10.13808346,41.24026489,-46.64619064,-0.578662872
1244,4.528383732,0.701493859,10.64719582,22.04380035,-45.30598068,-2.629372358
1245,5.295013428,1.907475948,9.940047264,10.65022945,-44.45798111,-3.570782423
1246,6.340361595,2.69426918,9.495747566,5.402944565,-46.56368637,-0.982920468
1247,6.741734982,2.56050539,9.291211128,-1.057736397,-48.66601944,1.816256404
1248,7.305764198,1.772499681,9.355386734,-6.962497711,-47.37817001,1.337486863
1249,7.825677395,1.106424093,9.308456421,-7.854545116,-47.75410843,2.02944541
1250,8.747245789,1.331063747,9.042237282,-8.103476524,-47.81705093,3.614909649
1251,9.283091545,1.680483103,8.535280228,-10.26832581,-52.09996796,4.978447914
1252,11.4026432,0.503971159,7.00383091,-21.22637939,-37.40944672,2.578812122
1253,10.48852444,-0.742408991,7.611216068,-32.44925308,-4.858146191,-2.957561255
1254,6.541623592,-0.080988534,9.332024574,-21.86426353,52.71520233,1.842797399
1255,8.172879219,-0.854553461,9.828089714,-28.78876877,101.2293015,7.18827486
1256,9.95480442,-0.881220281,10.15520668,-19.257967,101.377037,4.356519222
1257,9.759580612,-0.308811814,9.332203865,-4.873848438,84.77346802,-0.580142319
1258,11.29753494,1.847156882,7.325644493,-2.730935812,77.69512939,0.086796895
1259,12.11717796,2.580510855,5.937855244,-10.12449074,79.77739716,13.82988262
1260,11.12055492,1.596495271,5.146625042,-18.67530823,79.26194763,19.33579254
1261,10.01133537,0.677344441,4.375828743,-25.94636154,69.93108368,11.59107304
1262,8.210315704,0.913753808,4.957233429,-34.50136566,59.63528442,10.31002331
1263,5.659722328,1.331174493,6.071793079,-48.84082413,68.23459625,12.53753567
1264,4.00726223,1.188004255,6.285669327,-59.11386108,126.7371826,16.87511444
1265,2.276800871,0.401561022,6.135035515,-45.75545502,197.3462067,19.23893929
1266,0.274526238,-0.10319446,4.69498682,-13.00955963,211.2457428,20.84499741
1267,-0.446572125,-2.429120302,3.740268707,-6.250873566,200.5219879,25.42610931
1268,-0.358936965,-2.670460701,4.532529831,-5.764526844,185.5214081,21.37589455
1269,-0.145560116,-2.988749981,6.667620182,-19.09412003,181.1542816,15.62100697
1270,0.083220348,-2.775778055,7.107130051,-13.104496,167.5951691,8.202100754
1271,0.365439415,-2.117444515,6.857496738,-22.9711647,162.1343384,2.741477489
1272,-0.220890135,-1.112489939,7.096238136,-38.66448212,143.1265869,0.9789868
1273,-1.599657178,-0.13791573,7.759311199,-47.24058914,126.0286713,2.603037357
1274,-2.22177434,-0.565076709,7.219521523,-25.64551544,113.918663,6.139333248
1275,-2.380337715,-0.916807294,7.609135151,-40.93648529,103.9610138,6.66519928
1276,-2.111306667,-1.069242597,7.662608147,-28.07951164,83.67595673,5.698002338
1277,-2.564110041,-0.835828066,7.354444981,-33.63751984,63.80635834,6.390133858
1278,-2.219156027,-1.38583231,7.531084538,-23.91229057,47.10987091,6.494951725
1279,-2.714041471,-2.387480974,7.753205776,-4.566298485,29.41145134,4.511224747
1280,-0.704953194,-3.51725626,7.968947411,1.494942904,3.03126955,-1.247927547
1281,-2.366273642,-2.849033594,8.394598961,23.05105782,-15.33805752,-9.724428177
1282,-2.360551357,-1.661983371,8.757703781,29.82755852,-28.6485424,-12.23634338
1283,-1.796064734,-0.96760571,8.676308632,35.17456818,-36.6501503,-14.9101305
1284,-2.285031319,-0.587631285,8.259906769,34.64477158,-39.03171921,-13.70584202
1285,-0.941978753,-1.175590754,8.748885155,34.2363739,-46.79416275,-13.81267929
1286,0.467473388,-1.124761581,9.112748146,32.22055817,-59.15566254,-14.77374363
1287,-0.838578939,-0.950239182,9.69548893,25.28640366,-73.02310181,-8.92715168
1288,-1.167864799,-0.976274431,10.18848228,17.55718231,-75.64559937,-6.951934814
1289,-0.804302096,-1.152702928,10.3170023,16.15069389,-87.0526123,-4.980693817
1290,-0.516996562,-1.103295088,10.92668724,9.799492836,-97.97008514,-4.38153553
1291,0.053654596,-0.815680981,10.91034126,4.321809292,-113.8558731,-4.07322073
1292,-0.083574697,-0.64813906,10.66996861,0.302686661,-118.451683,-3.900905132
1293,0.419379324,-0.838803172,11.0101862,-0.680362284,-125.612915,-1.872571468
1294,1.647012115,-0.962078035,10.90403271,2.66222024,-129.6516418,2.403721571
1295,2.053663731,-1.526356578,10.5624094,2.60934639,-126.950882,9.173781395
1296,2.135591984,-2.202564716,10.49784184,6.662641525,-119.0734634,10.32491684
1297,3.015651941,-2.057850122,11.32647038,14.88795853,-113.1643677,7.412828922
1298,4.110946655,-2.126454353,12.03111553,17.30106735,-116.6241684,1.702975869
1299,4.309893131,-2.271653414,11.74316406,21.26335716,-125.1462097,-5.691748142
1300,4.227723598,-2.191327572,11.35181046,23.0541687,-128.6500854,-13.72318268
1301,5.196739674,-1.578139901,11.04010201,25.61112595,-112.6051178,-15.22574902
1302,7.019652843,-0.795369506,11.4945879,20.75084496,-84.76132202,-12.57653999
1303,7.633096695,-0.246964946,11.37922287,19.41659546,-56.02301788,-3.488966942
1304,7.627230644,-0.393719435,10.0860548,23.60176468,-38.50156403,0.053473298
1305,7.392705441,-0.529737413,10.35684395,25.95237541,-17.72447586,-7.816000938
1306,8.213104248,-0.244440585,10.55883789,25.32029152,31.37261009,-13.57082081
1307,7.895608902,-0.192010358,10.86152363,49.68675232,69.77593994,-10.81842232
1308,6.48961401,-0.312743187,10.8631773,47.23687363,72.11975098,-9.170562744
1309,7.202818394,-0.01859073,8.943728447,38.66319656,65.85706329,-13.68694878
1310,6.990670204,0.63709271,8.293777466,24.43310165,65.39725494,-18.16784286
1311,6.326595783,0.990614831,8.246092796,17.52209663,66.96298218,-16.9722271
1312,5.363182068,1.515409827,8.543175697,27.25672913,67.91564178,-10.70088387
1313,4.558923244,1.48148644,9.324561119,22.29796791,46.95095825,-2.949342966
1314,4.358144283,1.25729692,8.815123558,8.466295242,34.4592514,3.48044157
1315,4.115330696,0.121480748,9.490761757,-6.397314072,27.19845009,5.883580208
1316,4.269892693,-0.44964084,10.37612629,6.651870251,24.3897171,3.541738272
1317,4.486896515,0.006006822,10.88473606,21.25567245,45.20320511,-2.00003624
1318,2.846416712,0.470995486,9.892653465,21.04576683,38.52947998,-10.40331268
1319,2.625566721,-0.173324078,6.702286243,20.3051281,9.963942528,-5.575152874
1320,2.6652596,-1.020051599,6.278556347,17.23733711,16.94577408,-1.983092785
1321,3.812762976,-0.982568622,5.814614773,-19.70895195,15.52959633,-5.724937916
1322,4.046174049,0.105168134,6.282281399,-33.26519394,11.7818327,-15.62055016
1323,3.179748535,0.422247142,4.92410326,-25.34993935,4.514204979,-8.46571064
1324,2.164958239,-0.350749254,4.666293144,-10.42177296,-3.592668772,-1.498484373
1325,1.686988354,-0.50158608,5.505792618,2.453770876,-21.76098251,3.192762852
1326,0.740461826,-0.828935981,7.193175793,11.69441509,-40.33567047,3.715484619
1327,1.135528326,-0.849214375,7.479614258,19.73143768,-57.15578079,1.620056152
1328,1.102637887,-0.387615144,7.546495914,28.46503067,-71.41674042,2.550444126
1329,1.721079946,-0.643168569,7.801119328,27.51432228,-91.17063141,9.795079231
1330,1.361454844,0.509080529,7.496983051,5.756833553,-100.4253616,8.310241699
1331,2.172963858,1.454210043,6.561064243,-13.27593994,-101.7820969,2.33836627
1332,3.133544207,-0.45866558,7.036469936,-18.83763885,-106.6232605,-2.168909073
1333,2.983946085,-0.244147703,8.27000618,-26.2142334,-113.1668549,-4.317725658
1334,3.477958679,1.390124083,8.00165081,-27.360672,-121.1996994,-6.894995213
1335,2.704206228,1.851101398,7.645999432,-16.59856415,-126.1821442,-11.92560196
1336,2.693585157,0.751955271,7.42412281,-1.212486267,-116.0294418,-8.747038841
1337,3.693780184,-0.238755256,7.263871193,11.29404068,-97.62411499,0.716610074
1338,3.454537392,-0.41639778,7.993732452,6.803822994,-85.18986511,0.859334469
1339,3.316318274,-0.679593384,8.048201561,2.429339647,-72.89659119,-2.924948215
1340,3.245326757,-0.590301871,7.116147995,6.070368767,-59.13214493,-1.182309866
1341,3.115043879,0.630540371,7.490166187,13.15334225,-44.60052872,5.030379295
1342,3.568952322,0.778731644,7.608890533,18.25014877,-35.19075012,9.456385612
1343,4.21816349,0.594436467,8.077729225,25.31578445,-34.7372818,9.47296524
1344,3.803363085,0.034566648,8.271178246,20.09744263,-33.63846207,8.414452553
1345,2.835473537,0.092393443,7.394232273,8.015712738,-25.59385109,-0.940667212
1346,3.624865294,0.814670503,7.553924561,-0.009899316,-15.45777512,-3.75412035
1347,6.253022194,1.359126449,7.71218729,-5.807626247,-21.665411,3.613593578
1348,5.904173851,1.222139359,8.018438339,-11.86761475,-24.00895119,10.41793823
1349,5.883520603,0.293316394,8.593009949,-13.45661068,-18.40876007,12.27349949
1350,6.492689133,-1.015851855,9.240218163,-9.751719475,-15.28176498,11.75875092
1351,7.537818909,-1.450612187,9.052493095,-6.165266991,-16.80367088,7.832431793
1352,8.296380997,-0.622279644,8.517150879,-1.259429216,-17.75260735,4.88156271
1353,8.738632202,0.94471246,8.067747116,0.208173871,-18.8726635,5.202579498
1354,8.962860107,2.174108028,7.503635406,-12.31045723,-17.03029633,5.758493423
1355,10.14354992,1.810821652,6.346521378,-32.67746353,-3.268168926,10.27178001
1356,10.63950729,-0.070623793,7.042434216,-55.24785614,29.14651489,17.96783829
1357,10.40322876,-1.653821468,9.010760307,-61.95994568,52.80408096,20.43789673
1358,8.117972374,-2.826147318,9.657411575,-49.60596466,61.84619522,20.24464417
1359,8.374671936,-2.868066549,8.821901321,-30.4370575,82.13015747,3.304403067
1360,11.19126034,-0.262944251,7.916330338,-17.76774788,102.5936279,-1.520030975
1361,11.93723011,1.576849222,8.840334892,-6.881205082,87.47462463,1.445395947
1362,11.95431137,0.347582102,7.578132153,-11.51923084,75.81433105,7.365411282
1363,12.790555,-1.905828476,4.837882042,19.06723404,76.90497589,12.2677803
1364,11.26859093,-1.08516562,4.745536327,29.57941246,78.96634674,7.29375267
1365,9.613183022,0.089326859,5.424906731,16.59873009,72.51944733,6.013588428
1366,8.856501579,1.174119711,5.897741795,13.16137695,55.74001312,10.12300777
1367,7.328102589,1.219734788,5.688735485,11.05383968,48.34266663,19.6123848
1368,4.105395317,0.047882367,5.387694359,11.64425564,73.72665405,18.13583946
1369,1.039014459,-1.265820265,5.041623592,27.1718998,113.4574585,3.749872446
1370,0.363117874,-0.935049295,5.781407833,33.99398804,143.5344391,-3.904301882
1371,2.240503788,0.543827415,6.509856701,37.13560104,172.5133972,-6.666425228
1372,3.510891914,0.957303584,7.474849701,22.24200439,191.5339355,-6.285450459
1373,3.139999628,0.553420067,8.209131241,7.719130516,210.7307129,-9.636588097
1374,1.951448917,-0.007043873,7.366719246,-11.67913437,229.524826,-8.832597733
1375,-0.586554766,-1.240908384,7.854461193,-10.10335064,218.4853058,1.925061107
1376,-2.606144905,-1.787135839,6.800872803,-28.04355812,194.1995239,7.554756165
1377,-2.266551495,-1.809913397,6.656414032,-30.48600006,162.0665436,7.931548595
1378,-2.344545364,-1.158984303,6.718012333,-15.90999699,140.0287628,6.641307354
1379,-1.782031178,-1.217913628,7.658305645,-8.112217903,116.718811,8.626193047
1380,-0.701427937,-1.240522504,7.497227192,7.393483639,88.33839417,2.474991322
1381,-1.312569141,-0.843268037,7.576651096,9.93280983,61.13636017,3.700169325
1382,-2.716325521,-0.466907382,7.880042553,14.68646908,42.11651993,5.616975307
1383,-2.250209093,-0.304894894,8.032783508,28.58127022,17.53341675,6.804790497
1384,-1.814175367,-0.687677205,8.213149071,40.52472305,-1.468231082,4.312274933
1385,-2.29271698,-0.908625484,8.774384499,50.5833931,-23.86882782,-2.769544601
1386,-2.761984348,-0.459297836,8.786397934,47.00434113,-43.56414413,-4.681812763
1387,-2.40378809,0.357551605,9.118960381,43.2338028,-57.16695786,-5.770146847
1388,-1.350033164,0.796392441,9.497637749,37.41178131,-77.25205231,-6.751415253
1389,-0.310564458,0.937568069,9.735151291,30.04533958,-95.19444275,-8.557991028
1390,-0.183057368,1.341381311,10.18523979,21.14484787,-115.1019135,-4.159459114
1391,0.171486244,1.501398802,10.40493774,14.66379166,-129.2998199,2.530025959
1392,0.887327671,1.364252329,10.64707756,6.499789715,-137.2110901,5.856982708
1393,0.823673129,1.241909146,11.25263023,4.951417446,-143.6553497,3.958366632
1394,1.706928253,0.870180607,11.56012821,6.161748886,-148.5312347,2.02628231
1395,2.446305275,0.774991572,11.51327991,7.546938419,-159.2440491,2.464757681
1396,2.942543507,0.655305684,11.11935234,9.418937683,-169.297699,6.907152176
1397,3.703736544,0.487498641,10.85779572,5.736785889,-173.1576385,13.20957279
1398,5.31043005,0.071257144,9.845557213,4.094026566,-158.6063995,18.24912071
1399,6.259706974,-0.665303051,10.54019165,-1.535547733,-119.3976517,20.57875824
1400,6.293015003,-1.343209386,12.03629208,-5.054679394,-106.6302948,11.82465363
1401,6.889465809,-1.935240626,12.54724884,6.608365536,-96.79272461,1.653898716
1402,7.210808277,-1.167008877,12.7068634,14.18225384,-87.37093353,-4.336606026
1403,7.576503754,0.55542022,12.06223679,-2.433187723,-72.58093262,-2.371946335
1404,7.389639854,0.75584197,9.820702553,-24.9419117,-42.00785828,5.709587097
1405,8.312372208,-0.173759818,9.383881569,-14.95293045,-11.92783642,-0.206822813
1406,9.619934082,-0.55791074,9.718505859,-19.11121941,44.76265335,-7.040811539
1407,9.577250481,-0.194782808,10.30949402,-3.687207222,71.77793884,-5.075453281
1408,8.551377296,0.088232085,10.47040176,9.523070335,62.37703705,-3.594819069
1409,9.439321518,1.479644775,8.184627533,2.278483152,51.89025116,-10.49192238
1410,9.709206581,1.446910858,7.681696415,-10.78097916,42.57162094,-15.85692787
1411,9.749903679,1.293181062,6.499853134,-20.41129303,27.16213608,-15.0094862
1412,7.83708477,1.306124568,6.295559406,-30.10724258,7.615921497,-13.08879471
1413,5.486199856,0.866235137,6.789898396,-38.16861343,-1.982766747,-10.12812519
1414,4.304512024,0.427513808,7.350783825,-32.30516434,-2.481867075,0.558237314
1415,3.938545942,-0.264867008,7.17726326,-17.91270828,16.63066673,9.903539658
1416,4.14209938,-1.131637335,5.818891525,-1.947251678,54.7984314,2.127714157
1417,3.051575661,-1.158506989,5.385537624,-10.94476223,89.42299652,-4.86219883
1418,2.045153618,-0.469919384,4.830955505,-25.86594772,101.395256,-4.6298666
1419,2.816875219,-0.514773369,4.996150017,-27.17625999,91.27715302,-0.684085786
1420,3.005929947,-0.403357029,5.733636379,-29.10715866,69.41278839,2.915865421
1421,3.089131117,-0.620930135,6.002861977,-28.90852356,68.91297913,6.912691116
1422,2.052963257,-0.885500371,6.395624161,-15.90427494,77.6479187,5.948009014
1423,-0.007721648,-0.769307852,7.754907608,-8.518057823,72.00312805,3.400142431
1424,-0.293848813,-0.659180164,7.368979454,-2.680656433,57.48106766,2.131033659
1425,0.495991588,-0.717159986,6.504950047,9.884828568,41.04351044,-3.149600744
1426,-0.108467065,-1.211206913,6.918667793,23.08939362,15.38559723,-4.353440762
1427,-0.35941112,-1.364866138,7.084015369,35.88078308,1.083274841,-6.852760792
1428,0.194777727,-0.625298619,8.35559845,25.8791523,-9.476225853,-10.86440086
1429,-0.00938659,0.878778696,7.068710804,26.76616287,-27.87583351,-13.37164879
1430,0.548215747,0.718843699,7.819917679,38.08603668,-48.79302979,-13.04117203
1431,0.828863442,0.155447274,7.902719498,30.93950653,-62.23953247,-13.18968296
1432,1.586863041,-0.221923977,7.911472797,23.17203903,-77.88230896,-8.281919479
1433,2.173707485,0.259598196,8.002004623,24.30476952,-92.81848907,-7.83755064
1434,1.873131752,0.422314197,8.61542511,31.17849541,-102.4680023,-7.352500439
1435,2.528202057,1.04019928,8.958794594,36.09085464,-107.4389954,-7.729751587
1436,2.548589468,0.901077807,8.871809006,43.80088425,-111.6969833,-5.051247597
1437,2.062040567,-0.761223614,9.022310257,51.42991638,-109.7278366,1.025643468
1438,2.106363297,-0.7708202,8.690461159,39.27576065,-95.84373474,-0.604392946
1439,3.229416609,-0.448926598,8.478434563,28.86810493,-90.09578705,-0.377299756
1440,3.256243944,0.204661593,9.348371506,10.93566513,-80.1917038,2.015977144
1441,2.156268358,0.4805502,9.368728638,-4.165527821,-55.45589828,1.129986882
1442,3.740237713,-0.170638606,9.284905434,-27.10317039,-59.88214874,4.552989483
1443,3.824490309,0.051908381,9.09609127,-21.50514603,-57.746315,7.717485428
1444,3.378959894,0.956814528,8.976174355,-12.31532288,-47.37034225,13.01092529
1445,3.818328142,1.368080378,9.171616554,1.403553724,-41.6159935,15.42856407
1446,4.516851425,1.046887636,9.285859108,2.958613157,-41.18861389,14.7130127
1447,4.764782906,0.42121771,9.254536629,0.735760927,-38.62352753,10.94066048
1448,5.605297089,1.044600487,9.579319954,-1.401317,-38.83388901,9.344903946
1449,6.13369894,1.286059499,9.401136398,-4.266924381,-41.74406815,8.596158028
1450,6.977627277,1.105648398,9.288527489,-7.974463463,-41.90523911,5.836295128
1451,7.988549709,1.012454391,9.182816505,-13.44931889,-43.99104691,7.630369663
1452,8.126702309,0.754740417,9.253724098,-23.00327682,-45.21670151,10.0244627
1453,8.665242195,0.691057026,9.053312302,-35.69911194,-37.53389359,14.55871868
1454,10.37976933,0.628231883,7.87307024,-50.82228088,-12.35546398,14.49362946
1455,11.5945015,-1.285129309,7.31098175,-60.33699036,18.59749413,13.27481556
1456,8.495582581,-2.082831144,8.753427505,-40.73956299,31.60190964,5.273941517
1457,5.841432571,-2.086384535,10.4172039,-39.47038651,67.54299927,-11.35756016
1458,9.593241692,-0.763329744,9.621705055,-33.79192352,87.07077026,-14.04511547
1459,12.47581863,0.347247332,8.720161438,-8.753582954,79.52828217,-6.007147789
1460,11.87957668,-0.093796402,8.144278526,-2.51667428,73.0147934,-4.575423241
1461,11.59904671,-0.081219368,6.894938946,-9.807670593,79.59431458,-4.34360218
1462,11.278862,1.701616406,5.724229813,-6.964160919,83.20198822,0.251926243
1463,9.829763412,3.142959356,6.226967812,-13.04625607,79.49823761,4.908985615
1464,8.952707291,1.915046692,7.122581959,-31.10947037,65.57315063,12.79563618
1465,7.963416576,0.172631621,6.467148304,-43.81345367,71.44787598,19.79770279
1466,5.0329175,0.161565021,6.429688931,-71.44728088,141.6101685,30.63681793
1467,1.948190689,-0.472804457,5.900947094,-96.89865112,205.5890045,43.84963989
1468,0.813099504,-0.791168988,4.797069073,-95.87580872,228.1177368,47.88924789
1469,-0.232401937,-1.673800111,2.939916849,-81.00952148,237.1456757,44.46213913
1470,-0.931883335,-3.145162106,3.506214619,-62.34307098,228.8437042,40.87557983
1471,0.220280007,-3.604312181,4.83968544,-33.95955658,216.3860931,34.81885147
1472,0.325176597,-3.601479292,5.74082756,-16.99319077,206.5047455,29.36379623
1473,-1.110877752,-2.582624674,5.970508099,-6.742048264,190.6030731,22.67731094
1474,-2.072393894,-1.63876009,5.437037945,10.81473255,165.8545532,20.79131317
1475,-3.362751245,-2.34492588,6.118528366,34.19007111,152.6950378,18.8165493
1476,-2.948285103,-3.168440342,7.085544586,27.18722343,133.3539276,15.13662529
1477,-2.780000448,-2.651347399,7.259679794,22.5376091,107.7115936,5.871007919
1478,-2.413933992,-2.612369537,6.929471016,16.38956642,81.85832214,-1.960533857
1479,-3.197503805,-1.666743279,6.992874146,14.83464336,57.30912781,-3.19177866
1480,-3.525318146,-1.802892566,6.024563789,28.07979393,33.67406845,-1.073025584
1481,-2.971100569,-1.417077065,6.229791641,45.64779282,9.61520195,-1.510302782
1482,-1.780120969,-1.531032443,7.684898853,51.50985336,-14.64012432,0.867632508
1483,-3.451040268,-0.556836188,7.810621262,54.87904739,-43.1059227,-5.881417751
1484,-3.887705326,-0.203955948,8.642530441,53.7084198,-54.43037415,-13.07961941
1485,-2.612003088,-0.058757283,9.275339127,54.70029068,-64.23880768,-12.72448635
1486,-1.992119193,-0.036395021,9.394412994,50.23323441,-76.92034149,-7.335772514
1487,-2.026282072,-0.115402125,9.692340851,47.35391235,-82.22904968,-3.463690042
1488,-1.593907833,-0.345844984,10.42040539,43.91789246,-88.14609528,-2.162093401
1489,-0.894826174,-0.746163726,10.37006378,40.19388962,-100.0250397,-0.493448824
1490,-1.276977777,-1.131979823,11.11322784,35.67731094,-109.1306458,-0.736565769
1491,-0.482647717,-1.220050335,11.19282627,32.52877808,-118.9061127,-1.139454722
1492,-0.696455956,-1.078401446,11.11056614,33.63946915,-117.9786377,-3.293647528
1493,-0.058142021,-0.544883609,11.2237854,36.08063507,-120.8529205,-5.794904232
1494,0.712353945,-0.147456616,11.09375954,37.53530884,-123.9804916,-6.713113785
1495,1.44222188,-0.14496097,10.83965015,37.09771347,-128.2443237,-7.245340824
1496,1.778930545,-0.14581427,10.4740591,35.2646637,-131.8221893,-7.049784184
1497,2.196032286,0.111843482,10.23184013,34.51504898,-132.267395,-4.758487225
1498,3.155644178,0.558212519,10.24047184,35.96937561,-126.8518753,-2.055531979
1499,3.802730799,0.752720416,10.53634167,36.01341248,-107.7986679,1.29550457
1500,3.790654182,0.964724243,11.79925346,36.64798355,-97.3705368,5.371067047
1501,4.847745419,1.466804624,12.50798607,29.57478142,-95.6727066,5.292840004
1502,5.477032185,1.604585528,11.95552349,15.78681755,-93.04920959,9.133515358
1503,5.396360397,0.663973868,11.48440647,4.733121395,-92.27101135,12.24932003
1504,5.943365097,0.108087629,11.56451511,5.739904404,-71.39173126,9.13824749
1505,6.687051773,0.358520925,11.52433777,-2.675344467,-28.76758194,6.861196041
1506,7.115977764,0.310655206,10.42653561,-17.5987854,8.847646713,10.43265343
1507,6.547932625,0.286658943,10.41405582,-15.58930397,6.395070553,11.80492783
1508,6.432984352,-0.071903184,11.2632761,-12.93745232,43.09646988,7.588835239
1509,6.253757477,1.019771457,10.69641495,-18.45515823,82.25946808,6.083444595
1510,5.506673336,0.689805448,10.58606052,-20.84443092,82.23718262,8.40903759
1511,5.142441273,0.302508146,10.01434326,-16.51111412,86.3844223,6.797430992
1512,6.021640778,-0.085294731,9.198304176,-18.17917442,85.92490387,2.032711267
1513,6.628151417,-0.209724769,7.948280334,-17.01484489,80.51623535,1.902166128
1514,6.341692924,0.38052541,7.57038641,-5.556154251,68.55423737,5.308788776
1515,5.602204323,1.309126377,7.387033939,-10.43779087,48.03807831,5.491224766
1516,5.354908943,1.273994923,7.935591221,-40.25717545,25.54682541,10.0402174
1517,4.333083153,1.152427077,8.771541595,-52.14915085,16.48988342,17.98740005
1518,1.803468704,0.06123345,8.184849739,-37.63264084,30.38498497,11.16857147
1519,2.033026457,-0.648387551,8.907073975,-13.01021862,36.50140762,3.940400124
1520,2.506336212,-0.916818678,9.632593155,-0.819211483,26.98012161,5.071115971
1521,1.895866871,-1.166073442,8.539356232,19.61103821,27.74309158,-2.47280097
1522,2.019278288,-1.747407675,7.302681923,-3.456665277,33.55212784,1.120886683
1523,2.747958899,-1.271138191,6.25689888,-24.34576225,19.33384705,-7.455998421
1524,3.146079063,-0.591319144,6.336676121,6.813629627,9.315530777,-8.398319244
1525,2.602228642,-0.514787912,5.95241642,37.36822891,-11.66507149,-1.85649538
1526,1.818668127,-1.2662009,6.275206089,44.15333176,-25.50260925,2.420595646
1527,1.226265669,-0.620114684,7.299796104,37.24636459,-44.7300148,-1.424006224
1528,1.084660053,0.288109154,7.836933136,41.54560852,-64.30202484,-1.215527058
1529,0.887906075,0.173163414,7.35297823,42.31483459,-82.15563965,-0.284053326
1530,1.329227567,-0.211348936,7.294337749,37.91141129,-89.23513031,2.949585676
1531,1.684206247,-0.029541146,7.258709431,31.70554352,-99.86058044,4.796247482
1532,1.905614376,0.711504817,7.467249393,18.16273689,-102.2364349,3.899610758
1533,2.150195837,1.24039185,7.900503159,5.712526798,-104.9144363,-2.684020758
1534,2.267007828,1.177249551,8.109191895,0.600112677,-111.425827,-5.445882797
1535,2.516786098,0.796473622,8.079169273,8.064628601,-116.0814056,-3.521901608
1536,2.188194752,0.392131329,8.172686577,15.98492622,-111.3243256,4.043344021
1537,2.456314087,-0.04584346,7.845303535,12.28214359,-101.2398148,6.694310665
1538,2.789905071,0.332036138,7.26318264,3.053351641,-93.37310028,1.969529629
1539,3.028890133,1.332083344,7.190935612,1.137607813,-80.61253357,-5.104050159
1540,2.668070793,1.225628257,7.200306892,7.183806896,-66.70824432,-11.63094234
1541,2.773114204,0.246209338,7.587178707,10.81160259,-59.22866058,-11.87652206
1542,2.507869005,-0.01829035,7.746747017,11.88181591,-55.71989441,-11.38086987
1543,2.920086622,0.684361696,7.717039585,15.82747459,-54.99242783,-11.44208622
1544,3.429760933,0.597372711,8.025172234,28.10981178,-48.67331696,-7.435667515
1545,3.392703533,0.519865751,8.329841614,20.14348984,-49.96206284,-6.416547298
1546,3.149241447,0.90801698,8.94600296,11.36891556,-50.92529297,-7.705616951
1547,3.210344553,0.476209044,9.140386581,2.597736835,-37.7661438,-6.815804958
1548,2.890804052,-0.153149068,9.28416729,4.209775448,-31.38687134,-3.735215425
1549,5.140699387,-0.328655094,9.109768867,5.766751289,-30.30989075,-5.004059792
1550,5.642472744,-0.086347841,8.875351906,3.85657382,-27.29319191,-8.484526634
1551,6.317434311,0.705207705,8.16740799,3.452532768,-28.37199974,-11.01814556
1552,6.979743958,1.173349977,7.6302495,-3.470914364,-26.44026375,-9.57209301
1553,7.754994392,1.367718101,8.020200729,-9.959164619,-24.00743294,-7.819897175
1554,8.291934013,1.319412112,8.566008568,-10.19684887,-23.10750771,-5.452033997
1555,8.128979683,1.096757531,8.381788254,-13.16030884,-14.45239162,-2.770836592
1556,9.252278328,0.952837408,7.541309834,-29.96311569,-1.985899925,-4.91027832
1557,10.62855625,-0.49387002,6.709201336,-27.64656639,9.769426346,-9.328700066
1558,10.40015697,0.227160171,7.932965755,-5.016720295,24.98028564,3.415480852
1559,9.167272568,1.046497464,9.925683022,-10.25611401,39.6620636,17.87532234
1560,6.638533115,1.201607108,11.63148022,-25.65146637,57.41911316,7.883884907
1561,7.916817665,0.642830253,10.37605381,-36.5030098,72.20181274,-1.904821754
1562,9.879597664,-0.431319833,8.324007034,-21.5590477,68.07236481,-4.943519592
1563,9.622712135,-0.42162323,9.101439476,-11.31264496,85.44916534,-6.732167721
1564,11.56514931,2.302294254,7.394351959,-15.48133564,95.23376465,0.375795424
1565,12.69488239,3.562536001,5.611660957,-12.01332188,104.2414932,3.679323912
1566,11.49705982,1.74907279,5.736842632,-18.55032349,119.3826523,2.920081139
1567,11.08600616,1.2534374,6.036540985,-20.15627098,120.4564133,5.795825005
1568,11.22023582,1.430256367,5.560589314,-27.91723633,94.75269318,9.797524452
1569,9.557109833,1.738914847,5.905696869,-30.28324318,68.99253082,15.16049099
1570,7.285540104,2.036118746,5.992975235,-28.50681496,61.70220184,23.00786591
1571,4.361126423,1.555380702,5.024998665,-29.27064705,104.3765717,28.35125732
1572,1.535106182,0.647452414,6.327439308,-23.36034775,173.8399048,29.60865593
1573,0.001345232,-0.390986443,7.570189476,-26.54888916,208.326416,29.50892448
1574,-0.046847716,-0.475748628,6.939950943,-30.12407875,204.2912292,25.09052467
1575,0.55726099,-0.186486542,5.120320797,-35.81302261,201.9367828,25.3287487
1576,0.063777409,0.191678494,3.07878089,-41.59299088,199.4566345,26.32842636
1577,-1.360612631,-2.272883892,4.632329941,-27.33258438,181.739212,21.21953583
1578,-1.132123709,-3.513125181,6.705936909,-1.81016469,166.4732513,18.91572952
1579,-1.960222363,-2.049451828,7.27361536,-1.002304554,161.0968781,15.64722252
1580,-3.080378056,-0.4677625,8.064918518,-4.944732666,165.9892883,12.03859997
1581,-6.106790543,-1.103999257,6.913773537,10.32056236,166.9307404,5.045425415
1582,-0.259181112,-1.092036605,7.44879818,15.05475521,124.3586044,5.257215023
1583,-2.01012373,-1.572695971,6.32664156,16.46663475,83.13569641,0.235982165
1584,-2.187173605,-1.438779473,6.447825432,20.11873436,50.24678802,3.018391609
1585,-4.441922188,-1.036819577,6.328811169,21.52815628,31.70063019,4.734525681
1586,-4.479800701,-0.374492139,7.051496029,26.24193001,13.76794434,3.147836208
1587,-2.929210901,0.619625211,8.521607399,24.83207893,-13.08049583,3.533147573
1588,-2.670734167,0.526442349,9.285065651,20.3807621,-33.81888962,6.47331953
1589,-2.785274982,-0.24971661,9.769260406,23.06717491,-50.3786087,4.637831688
1590,-3.294832945,-0.425965637,9.875278473,25.85071373,-67.93654633,1.206995249
1591,-2.720901489,-0.265145332,10.04961967,26.35799599,-82.81058502,-4.932830334
1592,-2.433013439,-0.016022928,10.75447178,20.16005516,-97.40303802,-12.40027809
1593,-1.809833765,0.329756498,10.50639915,18.10173988,-119.455246,-15.01292324
1594,-1.478377581,0.39797774,10.51000786,23.53289032,-133.1894684,-10.64569855
1595,-1.132555723,-0.091773748,10.93208504,29.41109467,-136.0591431,-7.578919888
1596,-0.397219956,-0.528838992,10.89565945,23.20016098,-140.4947662,-3.59301424
1597,0.535650611,-0.464963466,11.02999401,17.82776642,-146.0466461,-0.922447681
1598,1.34561038,-0.204171479,11.32151699,14.91203499,-150.2861023,0.015067883
1599,2.736360073,0.076157384,11.61470604,21.75933456,-156.1548157,-0.827529013
1600,3.497657299,-0.034697916,9.555908203,27.55647469,-127.7968292,0.773261964
1601,2.910964966,-0.045260619,8.661026955,17.07107353,-111.6144791,0.310023636
1602,3.571815491,0.404328823,8.774185181,11.79198837,-104.4401016,-4.324706078
1603,5.09129858,1.100421429,9.023945808,16.01947594,-104.5944519,-7.279905319
1604,6.101911068,1.754097104,9.829600334,12.07104397,-95.84043884,-7.401956558
1605,5.200752735,1.970907807,11.43197632,5.430384159,-83.35152435,2.013873577
1606,3.451090574,0.730766892,13.7509613,-3.554468632,-71.99501801,10.08432388
1607,4.615010738,-0.61553365,15.04274273,-3.466971636,-83.68319702,13.20205975
1608,5.634994984,-1.802107573,14.20927143,-12.23973083,-96.26811981,17.16940308
1609,6.436359882,-2.267540693,12.8612175,-30.10221863,-89.32115936,12.25224304
1610,7.75983429,-1.52392149,9.82845211,-12.39562607,-71.82878876,-1.865139246
1611,9.769945145,-0.693907857,9.953670502,21.04934883,-28.63769341,-9.444163322
1612,9.978591919,1.559858561,11.32574654,27.10977936,26.02599716,-6.764015675
1613,8.751935005,0.949459851,11.55839539,32.79436111,25.92185593,4.045146942
1614,8.268695831,-0.096027501,10.47806263,27.9459343,40.23881531,3.807852745
1615,10.21532822,0.968144953,8.386597633,15.03792,41.86805344,-7.571641922
1616,10.51216793,1.441881657,7.261980057,-11.92229271,37.21149826,-10.66303635
1617,9.547620773,1.305388808,7.268879414,-18.94970703,19.51143837,-2.429281235
1618,7.526622295,1.417218208,7.11673069,-31.13817787,-1.771354437,-0.840022445
1619,5.598857403,1.020096898,7.634186268,-45.02470016,-14.42066383,-1.117183566
1620,5.430461407,0.811695457,6.677278996,-46.23677444,7.743195057,-2.448862076
1621,4.438582897,0.623159885,5.900069237,0.80628103,94.16316223,-5.820374012
1622,2.63922596,-1.369404674,6.408955097,10.89658928,124.0049667,-2.887336254
1623,1.059798956,-1.212424755,5.319153309,-29.0682106,96.19073486,-6.164376736
1624,1.026486993,-0.772202671,3.986259937,-73.04721069,86.26625061,-10.07785225
1625,0.922819436,-0.575279355,3.800767422,-71.73106384,84.41996002,-6.777413845
1626,1.718894958,-0.771796465,5.613468647,-43.44567871,72.89963531,-3.027689695
1627,0.04887145,0.021796428,6.81658411,-9.567199707,69.35843658,-0.075187378
1628,1.022304773,0.433898449,7.534225941,3.203129768,46.64297485,-2.120927095
1629,-0.66992408,0.212995559,6.676990509,7.362390041,37.8116188,-0.202290162
1630,-0.94795388,-1.289331794,5.973525524,10.55504704,29.07336044,-2.761865139
1631,0.027570147,-1.054909945,5.983941078,9.322376251,17.33561516,-5.397397518
1632,0.609298825,-1.133928061,6.349954605,3.451791763,0.4810386,-3.893079758
1633,0.708068073,-0.548020422,7.429693222,-6.240569115,-19.78090858,1.215215564
1634,-0.471685231,-0.018291924,7.73476553,-15.60843754,-27.92947197,6.956966877
1635,0.644116044,0.144871801,8.075520515,0.222402945,-43.1056366,1.859654307
1636,0.878973007,-0.699347138,7.838754177,24.83571815,-62.50280762,-4.096150875
1637,0.607862294,-0.907979906,8.588967323,46.46982956,-78.09289551,-16.19854546
1638,1.78258419,0.17487359,8.782032013,48.28947067,-96.58249664,-19.3407402
1639,1.31122601,1.020135522,9.779883385,44.13836288,-119.2096558,-18.15690994
1640,0.487194121,0.76623255,9.503703117,46.30963135,-135.8939209,-11.67453384
1641,0.341102421,0.236192539,9.346437454,44.44203568,-133.4349823,-6.915015697
1642,1.418300152,0.358334035,8.500859261,38.49057007,-119.7067337,-2.536874294
1643,2.823328257,0.448364049,8.085364342,46.92909622,-103.1993866,1.309476733
1644,4.105458736,0.103297338,7.987366199,42.63365555,-89.90940094,1.658896565
1645,4.62253809,-0.305211604,8.139341354,30.98108864,-72.60453796,-1.266229987
1646,3.997281313,0.175848156,9.179917336,24.61773872,-61.42162323,-1.891398907
1647,4.031778812,0.304275364,9.828541756,28.28216934,-54.54911041,-1.363599896
1648,4.076292515,0.009318898,9.746972084,25.44745636,-49.03845596,-3.052349329
1649,4.714352131,0.6441136,10.05927944,30.93482208,-53.87407684,-5.483997822
1650,4.340508938,1.804032207,9.581734657,25.21074867,-53.96256256,-5.558256149
1651,5.22149086,2.499469519,9.220321655,20.66716194,-44.40447235,-5.211627483
1652,6.327762604,2.262745857,9.266267776,8.831154823,-41.11414719,1.649858832
1653,6.96116972,2.174047232,9.412395477,0.357408255,-41.01886749,9.701005936
1654,7.980964661,1.623155236,9.094197273,-11.59493732,-41.0658226,13.63728905
1655,8.856163025,1.004550219,8.71487236,-18.65532684,-44.29247284,13.53104782
1656,9.520512581,0.072851256,8.196914673,-18.52847672,-44.29845428,10.88364124
1657,9.066859245,-0.169341296,6.79263401,-13.4463892,-33.22926331,13.45811367
1658,9.054679871,-0.101341777,4.7895751,-19.14334679,0.727395356,9.008301735
1659,8.428808212,-0.119704507,6.678833485,-29.67366219,37.35245514,-2.602322102
1660,4.857508659,1.48077023,11.54883385,-27.83721542,66.72977448,-3.107979298
1661,6.900121689,0.854350865,12.42585278,-40.89918518,78.96595764,-5.69685936
1662,10.64673996,-0.183295786,10.13683128,-28.51888847,62.92774963,-5.133639336
1663,9.954739571,0.470865756,8.932839394,-3.324223757,59.29270172,2.654231787
1664,11.90183067,1.328051329,6.746532917,-15.36121845,65.48795319,-0.646205842
1665,11.94883633,1.788836718,4.761829376,-43.90415192,67.94094086,-2.768796682
1666,9.816847801,1.837137341,4.984379292,-48.49706268,79.64117432,2.844499588
1667,8.995286942,1.265874863,4.97840023,-49.67617035,73.16269684,7.364526749
1668,7.437767029,0.83847791,5.988393784,-50.67019272,53.85329437,10.40145111
1669,5.274353981,1.393643975,6.380820751,-61.25975037,73.93649292,14.00103569
1670,3.733896971,1.363533616,7.524237156,-94.17761993,150.6801758,22.77314568
1671,3.527793407,-0.022492714,6.64951086,-110.568985,210.6269684,31.68577766
1672,1.106259942,-1.193825722,4.865272522,-117.6978378,216.5289764,36.50408173
1673,-0.605927587,-1.671421647,1.768584967,-90.90046692,217.2974396,34.23451233
1674,-0.391316712,-3.143472433,4.556435108,-46.08340836,198.1472473,26.8471756
1675,0.539251447,-3.663100481,5.494467735,-20.99178505,183.1422119,24.5631218
1676,0.205926552,-2.876905203,5.713600159,4.053293705,176.4724426,16.58400726
1677,-1.206647396,-2.330377817,6.21826601,5.250824928,163.2273102,13.92265797
1678,-2.036371231,-1.867526293,6.592507839,7.844087124,156.187912,10.47673798
1679,-2.064393759,-1.896641135,6.968310356,7.957508564,140.8233185,3.405876637
1680,-2.678035259,-2.293160677,7.455579758,28.67995071,122.8952637,2.476086617
1681,-2.881661415,-2.540315866,7.408898354,32.8939209,96.90400696,3.94517374
1682,-2.847027063,-2.886637449,6.652159214,33.67342758,74.98684692,-2.970132113
1683,-1.996633053,-1.455163956,7.66377449,30.94639587,56.63451385,-9.846679688
1684,-2.816004992,-0.529119551,7.70788908,21.12753487,33.17439651,-9.77620697
1685,-3.161365986,-0.726690888,8.041461945,24.02926254,16.983881,-9.027890205
1686,-1.550132394,-1.024584174,8.032449722,27.28928947,-6.721009731,-6.448592186
1687,-1.673136115,-1.490657926,8.51787281,34.58787155,-26.69457054,-7.785712242
1688,-2.521484613,-1.572348118,8.68445015,44.41318512,-42.53837204,-9.789486885
1689,-2.858986616,-0.86627084,8.977766037,50.90849304,-51.40904999,-10.27780151
1690,-1.831787944,-0.404689401,9.558443069,50.58905792,-59.54356766,-10.71768951
1691,-1.068842888,-0.027746104,10.02923393,43.35807419,-70.40963745,-8.14855957
1692,-1.03922832,-0.011017933,10.34867001,39.40750122,-75.80541992,-0.650220752
1693,0.064959161,-0.461587131,10.61647224,34.97939301,-85.60359192,5.584024906
1694,-0.522397637,-0.750582159,10.84451675,32.089077,-96.23511505,9.20421505
1695,-0.643980622,-1.101801276,10.91973495,24.6019249,-103.2872238,10.0380764
1696,0.27255106,-1.010473967,11.56713104,16.90471458,-113.5660172,9.506667137
1697,0.849703848,-1.125190735,11.46466541,4.445909977,-117.4461441,5.362735271
1698,0.798731804,-1.064528108,11.17359924,-5.968344688,-117.7153625,0.161374286
1699,1.152881384,-0.491655439,10.95795059,-7.156680107,-126.1612854,-2.889940977
1700,1.505264282,0.081156664,10.58204937,-2.081716299,-128.4507904,-4.277608395
1701,2.154852629,0.300971538,10.56513977,-5.633267879,-126.2837143,-1.052305818
1702,3.332975149,0.134852961,10.81553173,-1.188958287,-127.3329468,2.656912327
1703,3.660776377,-0.23385185,11.02078915,6.020688534,-123.9849319,4.453349113
1704,4.363892555,-0.214108676,11.08509731,12.25959396,-111.1684952,6.647295475
1705,4.512700081,-0.058100969,12.02554989,20.60582161,-104.3235626,6.925201416
1706,5.295033932,-0.353359073,12.26223087,31.58818436,-103.3539734,4.251890182
1707,5.861040115,-0.114201173,12.1716404,36.23591232,-95.34172058,3.170296192
1708,5.806193829,-0.524626434,13.11879635,13.17272472,-75.34894562,5.499154568
1709,6.55036211,-0.582644582,12.7978096,-12.71230793,-44.79268265,7.013969898
1710,7.078674316,-0.297535747,11.98876572,-5.70527029,-10.42479706,-0.113950953
1711,7.879458904,0.735059261,12.98454094,-34.89341736,2.033893824,-2.554967165
1712,8.112246513,1.090612173,12.65704346,-43.82070541,28.57940674,-2.941544533
1713,6.413210392,0.143671766,12.26673126,-29.74952698,40.88539886,-5.476339817
1714,7.257453918,-0.801103771,9.882499695,-37.02070999,25.48943329,-10.47586536
1715,9.343840599,-0.772420108,6.701551437,-24.06477547,10.22872448,-13.1394558
1716,9.724390984,-0.932484269,6.153547287,-4.914720535,9.253110886,-6.151135921
1717,9.029819489,-0.017997034,6.209915638,2.614077568,9.225895882,-2.712539196
1718,7.499820232,0.036079727,6.068484783,-7.651116371,0.992959678,-0.91944474
1719,5.304177761,0.106241234,7.29458046,-5.659869194,0.289212227,1.699473143
1720,4.209029198,0.361058623,7.35720396,-9.264867783,14.80272961,6.413869381
1721,4.165859699,-0.295039266,8.018224716,-3.396906137,41.28113174,12.0178442
1722,5.031182289,-0.658401608,9.288423538,0.159460023,54.59937668,10.57153416
1723,4.195967674,-1.419845104,9.925619125,-8.590893745,46.28345871,15.69184113
1724,2.619988918,-0.875488043,6.508407593,-20.84901047,5.613194466,10.0732832
1725,2.746246576,-0.703484774,4.970759392,-5.484901428,15.90398598,4.187750816
1726,3.66053772,-1.036020279,4.766918182,-16.82273865,44.45924377,8.108632088
1727,3.763664722,-1.334035516,4.895268917,-28.13843727,72.79859161,7.631897926
1728,4.055766106,-0.470207185,5.484006405,-39.36850357,81.59749603,6.471895695
1729,2.999258041,-0.173707753,5.585932255,-32.07884598,84.32187653,7.047389984
1730,2.47116828,-0.782720804,5.27457428,-29.67626762,85.23143768,13.53269482
1731,2.001641035,-1.149003506,5.292387962,-21.02739906,81.01503754,15.60941029
1732,0.980744302,-1.611015677,4.479946136,-16.3759594,60.39826965,14.20515442
1733,0.345944017,-1.948684454,5.435124874,0.073207818,34.33146286,4.829071045
1734,0.548807085,-1.178878427,6.437388897,8.879552841,12.84980679,-0.933327675
1735,0.147020206,-0.38327843,7.170597076,10.65872288,-3.853073597,3.261823416
1736,0.324496567,-0.675274909,7.338154793,8.245450974,-27.07073021,6.833404541
1737,-0.498894334,-1.945227742,6.891905308,12.13647938,-46.77440262,-1.456542253
1738,0.005680472,-2.092892647,7.39256525,23.16308594,-63.62349319,-12.30703068
1739,1.056761742,-1.933692098,7.731878757,32.39151764,-82.65270233,-17.08527565
1740,1.215764642,-1.244499445,8.299995422,39.48049164,-98.07808685,-22.24964142
1741,1.459440589,-1.254362464,8.310193062,50.78969955,-108.580246,-24.82493401
1742,2.161465883,-1.006044507,8.901026726,56.45530319,-114.7253876,-19.2518425
1743,2.106046677,-1.06861639,8.492834091,66.3296814,-124.0748978,-17.8925705
1744,2.122985363,-1.076920509,7.731318474,67.89742279,-125.898407,-15.98382473
1745,2.230904102,-0.317118585,7.888404369,65.78420258,-119.2593536,-11.5489254
1746,2.916058064,0.912882268,7.917218208,58.42403793,-116.0155029,-5.276670933
1747,3.104841948,1.373298287,8.041334152,48.26955032,-108.8543625,-0.97134608
1748,2.649144173,0.702950656,8.293134689,38.77393341,-97.89369965,-1.708933353
1749,3.220552683,0.640476465,7.825892448,39.10257339,-76.33229828,0.833887935
1750,4.147419453,0.609901309,8.947404861,22.13435936,-65.24488068,3.763957977
1751,4.800270081,0.972228289,9.318768501,15.80139542,-64.50673676,7.807686806
1752,4.275129318,0.970200241,9.848380089,8.837546349,-57.16620636,11.54240894
1753,4.600018024,1.151659369,10.13260365,3.415365219,-51.70407867,8.746829033
1754,5.312520504,0.308601707,9.850367546,6.348158836,-50.17711639,3.855930805
1755,5.474946499,-0.691268325,9.550643921,10.97844601,-44.11013031,-0.054850001
1756,6.320012569,-0.934255481,9.153120041,14.254632,-34.23800278,-2.92258954
1757,7.472594261,-0.034432307,8.803970337,18.79452133,-32.68113708,-2.955272436
1758,7.960142136,0.838016689,8.451334,21.58228874,-31.54115486,-3.725271463
1759,8.539491653,1.359248161,8.257896423,18.31639671,-31.00218773,-5.378256321
1760,8.890414238,1.841390729,8.036991119,18.58055496,-29.73932266,-8.662023544
1761,9.298164368,1.837257743,8.007637024,15.05754471,-26.97822952,-6.115026951
1762,9.572570801,1.661932349,7.598769188,7.892102718,-22.72919083,-1.158503175
1763,9.511552811,1.030732393,7.058393478,-12.60129166,-11.39955711,2.75220871
1764,6.605897903,-0.064204708,8.350408554,-21.48334122,16.20812798,10.91699028
1765,5.876377583,-1.352898717,13.41546154,-34.65132904,72.04000092,1.064878345
1766,9.929455757,-2.787599087,12.42021751,-32.19914627,94.28913879,-16.74556923
1767,11.33799648,-1.280923724,9.572338104,-6.973144054,69.49394989,-15.50057125
1768,10.62846947,1.400887728,7.697469711,-5.877941132,62.07049942,-10.9116106
1769,13.13758659,3.003187895,4.6248312,5.679258347,73.81694031,0.548781931
1770,13.45813084,1.122264862,4.573292255,7.526175499,91.24281311,5.461922169
1771,11.71138573,-0.568107486,4.932972908,7.262040138,94.80892181,2.008836031
1772,11.09442425,0.280671328,3.890077114,10.28469181,78.2956543,-6.163255215
1773,9.506540298,1.611243963,4.768206596,1.626874208,66.82662964,-9.074250221
1774,7.164257526,1.789878249,6.809075356,-9.35234642,54.19152832,-4.404381752
1775,5.105014801,0.990886271,7.597682953,-12.06400871,48.49559784,3.046676874
1776,3.334157944,1.085810304,7.150271893,-10.85811138,104.7629929,6.903707504
1777,2.792905569,1.657393575,7.196453571,-13.29460144,173.4537964,7.929199219
1778,2.082036972,1.890514851,5.794956207,-26.09150505,205.1804352,10.87615108
1779,1.02595365,1.04153204,3.965539455,-43.14953232,210.6871338,14.8471117
1780,0.7221874,-1.307927489,4.213896275,-56.98583984,205.627121,20.90958023
1781,0.944073021,-2.473728418,5.39439249,-53.37775421,193.703598,18.4331665
1782,0.997367263,-2.333648443,6.890938282,-40.86107635,186.9375153,16.34094429
1783,0.407912672,-1.495874524,6.901323318,-40.39400864,192.4658661,13.8976059
1784,-1.197657824,0.25800547,7.416115761,-50.14440918,196.0322571,8.312152863
1785,-1.094302535,0.82917583,6.6555686,-37.445961,188.9507141,11.03234577
1786,-2.5525105,0.335544765,6.509656906,-35.8181572,168.116684,12.72132301
1787,-4.281070709,-0.214003354,6.950079441,-22.27643394,157.0974884,12.47145844
1788,-3.163623333,-0.331368119,7.052632809,-13.32920456,136.0568085,7.164824963
1789,-1.898535132,0.594395041,7.186758518,6.952163696,110.1214905,9.370914459
1790,-2.781634331,-0.580901265,7.603239536,21.22921181,89.7090683,11.6825304
1791,-4.130386829,-1.836716413,7.421812057,20.32989502,65.44708252,6.846119881
1792,-3.492178917,-1.874364614,8.352775574,12.28019905,40.03052521,-0.104519658
1793,-2.99598217,-0.919522941,7.766520023,14.38069344,21.32517242,-4.818266392
1794,-3.97395134,0.040156618,7.177164555,12.67948818,18.7076149,-5.619699478
1795,-3.210909128,0.406152934,8.602246284,6.002505302,5.530732155,-6.768830299
1796,-2.033054113,0.199260399,8.693354607,9.702236176,-18.91848946,-7.309819698
1797,-3.117815018,-0.203699976,9.411300659,4.964022636,-36.74472809,-9.633131981
1798,-3.72029686,-1.091184735,9.884560585,10.53919697,-46.95804596,-10.08132172
1799,-3.299336195,-0.648993433,10.18955803,8.09249115,-56.59189224,-9.342284203
1800,-2.790934801,-0.352595776,10.59618378,1.95100069,-66.06298065,-5.557497978
1801,-2.035015345,-0.185876474,10.72819519,-4.142047882,-75.65716553,-3.16736269
1802,-1.454725981,-0.379425257,10.45584297,-9.051763535,-84.2182312,-1.840953112
1803,-1.085939288,-0.421799898,10.36074257,-9.722984314,-89.15904999,-1.815287352
1804,-0.816571176,-0.432909518,10.2770195,-12.79983902,-89.12373352,-2.470953226
1805,-0.508926511,-0.818035126,10.21322632,-13.73652744,-86.61814117,-4.265141964
1806,-0.379444033,-1.261757016,9.833654404,-11.71892262,-80.99758148,-7.200349808
1807,0.117975317,-1.25891161,10.02320099,-7.148550987,-76.33879089,-7.779136658
1808,0.374040335,-1.03801918,9.792431831,-3.290119648,-75.11477661,-5.749128342
1809,0.6478405,-1.110298157,9.531833649,3.321683168,-76.18894196,-3.143332005
1810,0.770594954,-0.982907116,9.50976944,8.175144196,-81.29846191,-0.112480797
1811,0.815206409,-0.265329659,10.36091137,6.31107235,-84.64086151,2.827246189
1812,0.788415909,0.010396067,10.2595253,-3.326679707,-80.81541443,2.954716921
1813,1.131978393,-0.412764132,10.30912113,-14.93062115,-75.77279663,0.511003256
1814,2.042920589,-0.699979246,10.69289398,-23.24473953,-74.28178406,1.698190331
1815,2.131632566,-1.007673621,10.90091133,-26.03081894,-69.54976654,1.370581388
1816,1.955532193,-1.250780225,10.83498859,-22.51557159,-68.20201111,-2.726329088
1817,2.180333138,-1.328624487,10.73898888,-16.50567055,-69.37909698,-4.068612099
1818,2.231743574,-1.35593462,10.84315777,-13.26468849,-70.76322937,-2.644994736
1819,2.340535164,-1.502961755,11.12815952,-9.611028671,-70.37976074,-2.462563992
1820,2.813969374,-1.773162127,10.97685146,-5.282512665,-72.45874023,-3.988419533
1821,3.304045677,-2.153661728,10.37467384,1.531429172,-70.15784454,-5.522565842
1822,2.966807842,-2.33656764,10.29745674,9.727837563,-62.78928757,-6.641328335
1823,3.014679909,-2.010282516,10.19539452,17.61622238,-60.86850357,-8.201867104
1824,3.251303196,-1.614059448,10.09985638,26.35316086,-60.0052948,-11.19231033
1825,3.360892296,-1.141828299,10.07067585,25.49000931,-52.7208786,-14.4568367
1826,3.432643414,-0.926529229,9.805812836,19.32458687,-51.47031784,-15.10414696
1827,3.910497189,-0.764209986,9.566770554,10.9685564,-48.53926468,-14.8786726
1828,3.775481939,-0.582678437,9.530644417,8.640929222,-44.01857758,-15.53440475
1829,3.624759197,-0.75153172,9.58381176,12.65432453,-41.81505585,-15.27164745
1830,3.67271924,-0.864457428,9.566073418,14.34511375,-42.90196609,-12.93693542
1831,3.841138124,-0.626039803,9.763140678,17.48942375,-45.7690506,-11.73658657
1832,3.860511065,-0.446130186,9.708284378,23.47026062,-49.90147018,-10.42150116
1833,3.89806366,-0.463780552,9.448968887,26.59197617,-55.81475449,-9.38805294
1834,4.063900948,-0.640561163,9.02332592,30.48710632,-57.23257446,-7.957997799
1835,4.489320755,-0.338438302,8.656481743,35.01357269,-55.49314117,-6.83184576
1836,5.056974411,0.04426207,8.410565376,36.82973099,-51.13605499,-5.478147507
1837,4.910851955,-0.083681546,8.269233704,38.08969879,-43.61968994,-4.689459324
1838,4.71637249,-0.073929355,8.46569252,34.6696167,-35.51821518,-2.985480309
1839,4.79673481,-0.004708312,8.680608749,28.56470299,-31.35247803,-1.861312389
1840,4.723926067,-0.200838283,8.57439518,25.26083755,-25.71562576,-5.113240242
1841,4.48465538,-0.461306632,8.52282238,25.60951042,-19.19963264,-7.435612202
1842,4.597196579,-0.81619817,8.364621162,22.64954185,-13.5643425,-7.805081844
1843,4.550569534,-1.059315324,8.375358582,18.40382004,-6.204185963,-7.223828316
1844,4.475963593,-1.105034947,8.522080421,12.37335682,0.871952891,-7.917774677
1845,4.368768215,-0.493406564,8.823768616,5.262266159,6.240632534,-7.693814754
1846,4.252288818,0.602171898,8.795090675,-0.204709634,12.70899773,-4.837307453
1847,3.864072084,0.625155032,8.583885193,-18.13417053,20.95680809,-0.365071565
1848,3.683010817,0.013845418,8.402676582,-31.19755936,23.12180138,-3.308857918
1849,3.622111797,-1.129144192,8.659778595,-27.47538567,26.4529686,-5.905846119
1850,3.933294058,-1.560080647,8.861789703,-11.95619869,25.49665642,-10.16861916
1851,4.188850403,-0.791817605,8.625789642,2.308432579,21.02537346,-11.54332161
879,-1.550452232,-1.309103489,9.440075874,5.85393858,-27.03540993,5.518296719
880,-1.001672745,-1.267580152,9.343993187,-3.415162325,-27.54514694,6.54271841
881,0.297870219,-1.274437189,9.327787399,-4.449523926,-31.15317345,4.093000412
882,0.370126486,-1.382880092,9.286857605,-4.309940815,-37.19738388,3.489055872
883,0.248281062,-1.524743438,8.970448494,-3.813617706,-40.12876511,0.06623482
884,-0.291387886,-1.242343187,8.922604561,-4.589473248,-42.49310684,-3.549168348
885,0.210979387,-1.094938278,9.019507408,-6.252970219,-45.27074814,-2.650863647
886,0.578145981,-1.017308235,9.128903389,-4.403431892,-49.63663864,-6.951534271
887,0.560906351,-1.178320646,9.571978569,3.214478731,-53.85436249,-10.14999104
888,0.673198462,-1.512795568,10.09494781,11.01181793,-60.47142792,-10.34689617
889,1.840286613,-1.754966378,10.13303375,1.973581076,-53.65617752,-8.02571106
890,2.964519262,-2.106217146,9.949459076,-10.51603317,-43.27288437,-5.862647057
891,3.210868597,-2.529344559,9.98973465,-13.11559105,-32.33047485,-6.502017498
892,2.6984272,-2.850784302,10.07498932,-5.812448502,-21.74800873,-7.012751102
893,2.463355541,-2.551337481,10.09393978,4.328331947,-15.00678158,-5.662364483
894,1.946155548,-1.921655297,10.15809727,11.40092564,-10.91133308,-0.793206692
895,1.926904082,-1.289539456,10.48296928,8.432768822,-9.589625359,1.209252954
896,2.300216198,-1.347399354,10.58147717,3.911099434,-12.45566082,0.286055595
897,2.313186884,-1.332112908,10.60223961,8.187558174,-17.01955032,0.915014863
898,2.266422749,-0.887760341,10.41141319,9.466352463,-18.20133781,1.520935297
899,2.515906096,-0.795387208,10.14722157,6.144546986,-19.3482151,2.866244793
900,2.180669546,-0.946103215,10.04230118,7.628510952,-19.46218109,3.515322685
901,2.414460659,-1.083678961,9.980192184,6.578940392,-20.20819283,3.030576468
902,2.816439629,-1.364937901,9.783601761,6.285917759,-21.48867607,2.121452332
903,3.431929111,-1.644952893,9.521052361,10.7845974,-22.60747719,1.296863556
904,2.98345089,-1.554106474,9.136789322,19.1441555,-18.52923775,2.073532104
905,2.799248695,-0.833382666,9.077548027,23.50916672,-7.459413528,-2.228507996
906,2.822090149,0.072366446,8.652655602,12.21383381,1.677696824,-4.787432671
907,2.74191308,0.070284136,8.518392563,-7.170439243,8.400239944,-4.544137478
908,2.93057251,-0.331745178,8.537716866,-18.47033501,6.655814648,-0.553279936
909,3.179031134,-0.937948942,8.583693504,-15.88537788,8.297907829,1.994437456
910,3.061853647,-1.453916788,8.759568214,-8.89081955,10.75668716,1.741984844
911,3.105357409,-1.222842216,8.861665726,-0.768336892,16.14736366,-0.339144468
912,3.235490799,-1.110295057,8.738136292,4.980041027,12.67992783,1.079671979
913,2.724119425,-1.501357555,8.895424843,2.278166771,4.045110226,2.197640181
914,2.795661926,-1.849646926,9.43290329,4.942816257,-4.440083504,0.518862128
915,2.620006084,-2.182985306,10.24481964,10.06218529,-20.59656143,-0.331832379
916,3.403132439,-1.45080781,10.46212578,16.71848488,-43.42587662,-0.488393098
917,4.223973751,0.384107918,10.2834177,14.32751179,-57.94717407,2.771021366
918,5.877598286,0.907773554,10.1319809,10.40481567,-66.70497131,9.161017418
919,5.848711014,-0.324230134,9.239994049,6.473236561,-69.60236359,8.19250679
920,5.134140968,-1.829060197,9.221950531,-0.845690846,-75.87210083,4.392014027
921,4.731596947,-1.922234178,8.787632942,14.41897392,-76.89486694,-7.987104416
922,4.453134537,-2.187586784,9.046430588,-1.994810104,-81.12033081,-16.5264492
923,5.010400772,-1.135202765,7.191435814,10.49885273,-73.68014526,-27.89648056
924,4.555808544,-0.476620167,5.34266758,21.95643997,-66.94723511,-32.41635513
925,3.726765394,-0.371305257,4.843005657,32.7594223,-69.61381531,-26.76922035
926,3.452451229,0.663767874,3.364118099,39.50530243,-63.79333115,-19.98448372
927,2.95416975,-0.801204801,2.433573008,94.97961426,-45.28501511,-17.87294579
928,3.726961374,-2.810076237,2.496413946,80.04790497,-28.20104027,-13.98874855
929,4.105852127,-1.137188077,5.033900738,37.55732727,-27.13272858,-20.01898003
930,3.441709995,1.675073981,6.788330555,14.51150227,-18.78072166,-15.00984478
931,3.571920156,2.555330038,7.022584915,3.397923708,-12.45423985,-3.333117008
932,3.072448492,1.963584304,7.162743092,6.819758892,-14.83314037,1.688326597
933,2.725402832,0.390059561,6.385462761,4.862001419,-19.04185867,3.811059952
934,2.404041052,-0.791620255,6.287252903,-4.773363113,-20.54777527,2.013302326
935,1.879212856,-0.731235027,6.625851154,-9.186876297,-21.23627853,-1.43743217
936,2.369353771,-0.122055605,7.694286346,-8.249753952,-18.64058304,-1.874167204
937,2.706945181,0.435023099,7.829469681,-3.058485985,-14.98916245,-1.155883193
938,3.122036457,0.307997942,7.221560478,-3.295298338,-3.354604244,3.641345024
939,2.391405106,-0.577369988,7.950824738,-0.407235503,4.951292992,0.85543853
940,1.335323334,-1.494889498,8.232405663,15.66024971,4.764773369,-3.446710825
941,1.974914432,-1.028849721,8.530181885,21.02890205,3.526453257,-11.79694462
942,2.461918116,-0.03884216,9.038817406,17.03261948,-1.882812262,-16.19214439
943,2.11310482,-0.667384565,9.335250854,17.95793152,-2.271793604,-15.99665451
944,2.381117821,-0.705372214,9.344957352,16.33594322,2.440675735,-10.81890011
945,2.96763134,0.246649489,9.833799362,24.05857658,2.088803053,-2.685458899
946,3.496781111,0.970896006,10.10482216,30.22665405,-4.681010723,3.502803802
947,4.461791039,0.47212404,10.75198269,30.39227676,-13.49307823,10.31439304
948,5.59454155,0.097711004,10.87507915,25.98522186,-31.03038979,12.73387146
949,5.562820911,0.027753577,10.64171028,9.209195137,-29.23784447,11.00043964
950,5.699687481,-0.53384614,10.28880787,9.220310211,-8.730243683,7.35483408
951,7.519753933,-0.258146375,10.06857777,3.407231569,-2.584647655,1.148332477
952,8.613786697,1.043913841,9.788268089,-6.628446102,-3.404203653,1.390295863
953,8.965423584,1.615482569,10.45975304,-21.28972816,-11.39941978,15.49005604
954,8.762597084,0.651693583,10.35629272,-25.08128929,-19.76717377,25.8205719
955,9.011907578,0.381901234,9.884464264,-18.23974037,-34.21273422,28.90641212
956,7.278954506,-0.257741511,9.452152252,-3.858411074,-43.80072403,17.9585762
957,4.48586607,-0.191286638,8.701237679,4.145258427,-24.75744247,-5.849858284
958,5.50506115,1.343850851,9.078639984,-5.166530609,25.61000824,-20.49740219
959,9.301743507,1.441808939,11.38425827,-8.013585091,78.00726318,-18.32169151
960,10.60427094,0.008266738,12.78451538,5.45060873,90.63408661,-14.88511467
961,8.568094254,0.111794561,12.17236137,-6.168857574,88.76689148,-10.13815689
962,7.230861187,-1.014924169,9.943166733,-2.232748032,101.870018,-11.49071121
963,9.094737053,-0.648530304,7.590621471,0.766936898,123.2258224,-13.29555988
964,12.22245407,0.884559393,6.568391323,8.19594574,106.1299896,-10.74818134
965,11.78745365,1.776876688,5.857043266,-3.93382144,99.82110596,-10.37281418
966,10.71383476,1.202262878,3.875872374,7.655498981,97.6018219,-6.779520988
967,8.41278553,0.332715631,3.208212137,13.93468475,115.9035873,-5.912086487
968,7.254285812,0.527482092,4.672749996,33.68658066,165.86763,-12.51179981
969,3.822481632,1.55372715,7.114667892,37.24787521,224.6960602,-16.52375793
970,0.316265643,1.131087184,5.9054842,-22.76001549,230.4502258,-12.90035629
971,-2.953558683,-0.241402373,1.288921595,-91.91470337,245.1491241,-1.808763862
972,-5.599843979,-0.914786816,1.818489194,-97.6532135,188.3696594,12.48264408
973,-4.399329662,-1.432376385,4.757441044,-77.30428314,150.5203857,12.69298172
974,-1.841826558,-1.626333952,6.827113152,-61.91578674,139.5731506,7.603897095
975,-0.83994174,-1.819494843,7.536130905,-51.44324875,121.8990326,8.247249603
976,-1.321203351,-1.567769885,8.076310158,-49.293293,98.97025299,6.786614418
977,-3.383852005,-0.995595217,7.782469749,-41.52762985,79.61557007,2.183813334
978,-3.369741678,-0.304259002,7.131572723,-21.06410027,62.74707794,1.995375514
979,-4.073402405,-0.906715512,6.713139057,-17.69871712,47.38004684,8.070180893
980,-2.390642881,-2.619434595,8.455957413,-12.17708206,30.29991531,8.639153481
981,0.696130753,-1.236959815,7.988639832,-22.46237564,-7.507821083,-1.44457829
982,-2.744839668,-1.137658477,7.029161453,0.056091934,-24.90743637,-0.486943305
983,-3.236896038,-1.444724679,7.185041904,23.38615227,-36.62382507,2.77067256
984,-2.250579834,-1.650119781,8.043704033,39.11529541,-34.81195831,-2.238052845
985,-1.445821762,-1.257313609,8.480075836,44.8625946,-49.66172409,-5.883810043
986,-1.441391826,-1.319290757,9.246700287,41.32874298,-59.9319458,-8.824029922
987,-0.570213974,-0.682017446,9.815674782,36.5995369,-72.48664856,-12.46513271
988,-0.31371969,-0.469088227,10.35905266,35.28541565,-89.08815765,-10.78000355
989,-0.379450649,-0.947095752,10.24698257,29.06793022,-99.17980194,-7.425639153
990,-0.035238445,-0.795394063,10.21264267,27.48036575,-112.8037186,-6.398350239
991,0.107294209,-0.472156793,10.7421999,21.99101067,-125.7104111,-5.463944912
992,0.56840241,-0.069483764,10.88392448,19.34612465,-127.3760376,-6.865213871
993,0.857786953,0.327045649,11.02512074,7.892983913,-124.9436417,-6.833539009
994,1.490657926,0.559636831,11.12360954,-3.046125174,-124.3708344,-6.036046028
995,2.350413799,0.186180651,11.06088924,-6.992301464,-125.0838089,-5.17346859
996,3.132482052,-0.502215564,10.79828644,-8.899570465,-123.6991653,-4.251970768
997,3.622424126,-0.49721542,10.11633778,-0.739402473,-114.6556931,-4.036293983
998,4.03128767,0.163743868,10.53778076,14.10698605,-96.38141632,-4.474732399
999,4.477724075,0.03839355,11.41106796,28.35117722,-90.52972412,-7.186467171
1000,4.150803089,-1.349763274,12.38674259,35.18170166,-90.38890076,-7.730267525
1001,4.100647926,-1.216952801,13.13357925,43.06545639,-92.4828949,-11.46210194
1002,4.882459641,-0.568933189,13.03936863,38.0465889,-93.68236542,-13.35509777
1003,6.019290447,0.49507907,12.73058224,13.65002823,-85.38411713,-11.94571972
1004,6.207729816,0.133530349,11.60381031,-20.36735153,-61.65258789,-3.240471125
1005,5.995803356,-0.285330296,10.84785366,-19.01952744,-43.51717758,-2.925556898
1006,7.347362518,-1.088260055,11.27472973,-8.040338516,-10.74141884,-6.490820408
1007,8.04468441,0.439258218,11.75524807,-16.49683189,30.16351509,-5.332452774
1008,7.700671673,0.247516364,11.39313984,-21.6437664,47.50140762,-1.592849851
1009,7.252352238,-1.056245089,10.11477852,-9.54880619,38.70854187,1.518354774
1010,8.56863308,-0.452678561,8.86288166,-11.41673946,29.14105415,-5.058839798
1011,8.686938286,1.0140872,7.300310135,-27.08217812,5.607999802,-20.13345146
1012,7.051073074,1.26591897,7.059165478,-33.9426384,-4.855614662,-23.53860664
1013,5.418289185,1.001802206,7.951070786,-28.11768532,-8.325671196,-21.84368324
1014,4.286483765,0.173808992,8.843968391,-24.31876183,-0.107208736,-20.72546577
1015,4.103304386,-0.672651291,9.730575562,-13.77282429,16.63468552,-16.84553719
1016,5.310372353,-1.041900516,10.03959465,3.154628992,10.36655521,-9.19166851
1017,6.363886356,-0.191714168,10.15860462,20.0072403,-16.53465462,-2.786469698
1018,6.227812767,0.027085546,9.403325081,29.66431808,-12.95682812,1.529749751
1019,5.630450249,-0.177545458,8.151965141,34.04803085,4.555366516,4.508033752
1020,5.29103899,0.187589347,7.940777779,20.43940544,27.73680115,6.80254364
1021,3.786849499,0.8216874,7.286221027,-0.397516638,28.75005531,1.495619416
1022,4.17971468,0.417418271,5.258164406,-21.34450722,50.1636467,0.938177288
1023,3.507135391,-0.656235158,4.750515461,-30.58661461,58.66385269,3.968364716
1024,3.348039627,-0.536061943,4.28161335,-31.59815598,68.472229,-1.147119761
1025,3.896219492,-0.73618561,5.067948341,-18.92107391,68.55182648,-3.539885759
1026,3.703741789,-1.136817932,4.982038975,-23.41841125,60.29589462,2.755979776
1027,2.643952131,-1.960554361,5.271800041,-2.242504597,46.28951263,1.106041431
1028,1.749112844,-1.412410855,5.616479874,9.683137894,25.33740425,1.99212265
1029,1.405665278,-0.897266626,6.499290466,30.58569717,-1.218368053,-2.373568773
1030,1.214397788,-1.322169781,6.350469112,50.7239151,-24.92392349,-9.371277809
1031,1.27975297,-1.260112524,7.094758034,63.50099945,-43.71661758,-15.33486938
1032,1.367302299,-0.797499478,7.697076797,55.7190094,-58.97235107,-14.84185982
1033,1.53648138,0.449219108,7.233103275,41.8235817,-67.60337067,-17.45170212
1034,2.133738756,0.952136278,7.001046658,27.84727287,-81.06602478,-12.1364193
1035,2.72821784,0.382385612,6.43619585,18.01393509,-100.4857483,-4.584989548
1036,2.248993397,0.830420971,6.532775879,13.96884537,-110.6850662,-0.245361209
1037,2.191688061,0.794941604,7.191123962,1.980118632,-105.3480835,5.093361855
1038,2.084251881,1.914376736,7.371690273,6.156803608,-99.15027618,3.541399002
1039,3.452645779,1.567822337,8.57592392,7.645213604,-102.2259064,4.767211914
1040,3.766738653,1.284690619,8.40418148,13.76724052,-98.43974304,0.585885227
1041,3.612912893,0.816356182,7.886026859,16.93571663,-95.44354248,2.089297295
1042,2.958687305,-0.280510008,8.227659225,16.59706688,-83.28635406,-0.238261789
1043,2.719859123,-0.752992034,7.876581192,14.98733711,-66.50973511,-7.633804321
1044,3.095062017,-0.661043525,7.560013771,14.5522337,-53.45291519,-7.693480015
1045,3.436517239,-0.256527007,7.574177265,13.95981407,-48.29626465,-1.3824898
1046,3.416687012,0.44529143,7.901797771,14.06055641,-38.32851791,0.600979865
1047,3.774338961,1.328980327,8.481520653,14.00878429,-31.95703125,1.277426004
1048,3.911178827,1.461545587,8.385166168,8.27990818,-29.18848228,-0.793784976
1049,4.026733398,0.788000703,8.457787514,8.270167351,-31.7209568,-0.952149272
1050,4.719803333,0.283225954,8.253091812,11.47033691,-37.01393509,-0.670768201
1051,4.942399502,0.607067168,8.621026039,6.227833271,-43.2044487,1.385425806
1052,5.516699314,0.756832778,8.613306999,2.503312826,-44.52705765,1.80081594
1053,6.709994793,0.486263722,8.365123749,-3.722513437,-40.38398743,-0.481182128
1054,7.990449905,0.086391926,8.393796921,-6.140902519,-38.69074631,-2.512958765
1055,8.748150826,0.103589773,8.097595215,-6.59519434,-37.45173645,-5.087265015
1056,9.242544174,0.562375367,7.699571609,-9.466441154,-35.23472977,-4.685884476
1057,9.95579052,0.937703252,7.565472603,-12.82282639,-31.87695694,-1.268467665
1058,10.57398796,0.851329863,7.241740227,-14.36080265,-22.40090752,6.375645161
1059,10.57812214,0.8910653,6.981564045,-23.95718193,0.27080372,11.26595211
1060,8.868945122,-0.79982084,7.829804897,-38.17015839,25.45419121,12.45769405
1061,5.540538311,-2.313565969,10.01939487,-15.21136284,57.34128189,6.595225811
1062,8.150657654,-0.644873023,9.85850811,3.298727512,83.29589081,-3.269035339
1063,11.10357189,1.701516747,8.486931801,-3.043556929,72.45046234,-8.608532906
1064,9.49058342,1.725759983,9.608521461,-28.68056488,77.54817963,-7.314057827
1065,12.01449585,1.080255032,7.193124294,-41.97118759,91.0243988,-1.065839767
1066,14.04153538,0.939705431,4.509160995,-30.14167976,95.2914505,1.953562021
1067,12.26975822,1.078670144,4.944563389,-22.13789177,108.3928604,4.982141495
1068,11.46815681,1.886934519,5.997321606,-16.93441772,114.626709,10.31553268
1069,11.91864204,1.089919209,4.992881775,-18.74982643,94.83787537,14.72318649
1070,10.98578072,-0.167722851,5.312038898,-20.78079987,70.48164368,17.46714783
1071,9.25223732,-0.368149728,5.263065338,-20.24539375,67.28999329,19.77249146
1072,6.122925282,0.212811679,4.872438431,-18.26990509,112.1384811,17.21191978
1073,3.057336092,0.679387748,5.947134972,-15.05472374,164.2633057,14.60446644
1074,0.502420425,-0.400200039,6.05838728,-12.25035286,183.7813568,10.2988987
1075,-0.30221343,0.153110668,5.423852444,-2.658704996,214.3639526,17.07071495
1076,-0.476106703,0.324843794,4.633299828,-12.91287899,226.3337555,19.11322594
1077,0.650771618,0.798829675,5.063765049,-29.43100548,228.4488068,15.03107452
1078,0.529480338,-0.133222267,6.48837471,-18.55891991,217.1369171,10.88362503
1079,-0.457542539,-1.067265987,7.96241188,-8.182771683,199.1602478,5.533937931
1080,-1.201245785,-0.379718721,8.014705658,-3.568535566,177.7488251,10.27054501
1081,-3.052515745,-0.588700533,5.812353611,9.880897522,156.1054077,11.66023731
1082,-4.471916199,-1.028508782,6.835305214,11.30996037,152.0997314,5.626662731
1083,-1.645007253,-1.072553396,7.097018719,10.43983173,118.2421036,3.801612854
1084,-0.971414685,-0.749694884,7.337797642,24.201334,82.94055176,2.175971508
1085,-2.768857956,-0.726923585,7.131059647,26.68988037,47.78126526,2.699683905
1086,-3.743355989,-0.095361754,7.407320499,26.86001396,20.4435215,1.295828342
1087,-4.25126791,0.212658197,7.988317013,29.81944847,2.510078192,-0.151967049
1088,-3.122545481,0.095343232,8.173470497,38.0555191,-17.2555809,-2.053632498
1089,-2.266576052,-0.234970301,8.369409561,40.13918304,-35.53600693,-4.23138237
1090,-2.287499189,-0.139846846,9.008493423,34.30899048,-50.05847931,-3.963367462
1091,-1.831614017,0.520097613,9.212028503,27.57252884,-64.3779068,-6.957458973
1092,-1.24465394,0.699106753,9.565655708,32.85853958,-83.11710358,-10.86167717
1093,-1.066655517,0.717945933,9.813055992,37.8176918,-98.90884399,-12.42664528
1094,-0.468052506,0.986664712,10.16915035,40.38647079,-110.5526276,-12.18157291
1095,-0.08205314,1.100698233,10.2917757,37.0424614,-116.4855194,-11.15522385
1096,0.189594567,0.879998744,10.65256691,38.32317734,-119.5757141,-8.768004417
1097,0.854911923,0.966486096,11.07101727,35.06501007,-125.5293198,-9.211937904
1098,1.631999254,1.595060587,10.8924036,29.22648239,-131.5991669,-10.54864883
1099,1.698004723,1.382342815,10.43169498,19.96161652,-138.0782928,-4.374660969
1100,2.046792507,1.216526389,10.26247406,7.943696022,-143.9928894,5.963855267
1101,2.465637922,1.037956238,11.38828468,-10.71158981,-149.1603088,15.24062824
1102,3.431701422,0.400003105,12.50859261,-20.72001266,-153.3864746,14.29991627
1103,5.29493475,-0.347978711,12.39033031,-18.90852356,-158.3547974,4.277192593
1104,6.550497532,-0.399821013,11.92729187,-14.14655495,-154.8232727,-1.887233853
1105,6.36046648,-0.387035251,12.05791759,-4.384953499,-138.2684174,-0.988838494
1106,6.373031616,-0.70016551,12.03194904,7.328138351,-117.456398,-2.127808332
1107,7.080722809,-0.489732176,12.30521488,1.092285514,-91.23054504,-0.158335954
1108,8.087854385,-0.170599252,12.43863964,-21.10024071,-54.47799301,7.94843626
1109,9.402651787,-0.220205843,10.15197945,-30.64562416,-20.15693665,12.79344463
1110,8.899471283,-1.014661074,10.29559898,-27.74441528,9.956471443,9.024152756
1111,7.985361576,-0.512546241,11.9499054,-36.79125595,47.25284576,-0.450398594
1112,8.190224648,-0.273649693,12.0708971,-27.0212841,70.75502014,-7.494446278
1113,8.521811485,0.235475555,10.84003353,-11.0851059,64.41573334,-6.583004951
1114,9.816226006,0.391151488,8.785737038,-8.998962402,42.72422409,-5.937763214
1115,11.39600182,0.229775473,6.64948082,-10.65493298,5.996717453,-6.447892189
1116,10.89154434,0.450634837,5.896888256,-13.39010811,-16.69973564,-9.103007317
1117,9.022112846,0.766825497,5.557643414,-24.07356262,-40.32759857,-7.730813503
1118,6.801752567,0.493220329,6.574852943,-27.62700653,-56.3867836,-6.189299583
1119,4.853421688,-0.176732972,7.230894089,-25.48232651,-41.46564102,0.242643893
1120,2.602834702,-0.598822892,7.535335064,-22.0862484,-17.64905357,7.717027187
1121,2.834187031,-0.172996849,5.756007671,-33.00329971,10.90666676,9.781188965
1122,3.720630884,-0.220910028,5.402345657,-40.78805542,37.06420135,4.431659222
1123,3.838605404,0.87985456,5.142054558,-52.77058029,49.44950104,12.44078541
1124,3.986927509,1.125422955,5.245477676,-37.7143364,50.70072937,23.1017704
1125,2.632954359,-0.392284542,5.207749844,-4.360245228,57.64569855,25.14071655
1126,3.985847712,-1.142786384,6.531740189,2.002955437,60.37365341,22.8614502
1127,3.188602924,-0.99063307,6.513268471,4.257731438,65.95975494,13.78586006
1128,1.012721419,-0.826758265,7.267652512,7.695373535,77.51625824,8.26709938
1129,1.492667794,0.107689314,7.094471931,6.91129303,82.59100342,5.429703236
1130,1.226882458,0.073145196,6.569486141,7.96511507,67.15098572,2.715771198
1131,0.964043498,-0.535930812,6.277061462,28.99119186,46.20236588,-2.491315842
1132,0.477382421,-1.614968657,6.630017757,47.53694153,25.61219788,-7.244006634
1133,1.222807646,-1.798817992,7.213439465,46.52782822,1.897147417,-8.058477402
1134,0.353857726,-0.880802691,7.39460659,34.26176453,-18.45086479,-7.766171932
1135,0.344947249,0.434391409,7.611717701,18.74642181,-37.17295837,-4.002054214
1136,0.546916962,0.515080452,7.339511395,13.11422253,-54.81071854,2.860022783
1137,1.044991136,-0.032348469,7.636213779,15.23301888,-76.88117218,0.46354863
1138,0.792087555,-1.099767923,7.424015045,26.02807617,-94.82320404,0.463119
1139,2.043801785,-0.732185602,7.837774277,32.96295547,-106.5282135,-1.901832461
1140,2.296195269,-0.534514666,8.017157555,40.22395706,-114.2069855,-6.166557789
1141,3.226778746,0.473782659,8.001848221,40.37140656,-109.8678055,-13.66433334
1142,3.764076948,1.165951967,7.69131422,41.31297302,-111.9737473,-13.647542
1143,4.486828804,1.370764017,8.16125679,37.62517929,-100.0513458,-5.096422195
1144,4.816053867,0.538819134,9.022987366,24.84841156,-89.62268066,5.690419674
1145,4.565103531,0.130710706,9.229846954,8.864159584,-82.17198944,12.06807995
1146,4.038504124,0.221641675,9.307560921,-1.904596567,-78.70813751,14.24843597
1147,3.651905298,0.354219973,9.051386833,-4.597028255,-74.56538391,12.68958187
1148,4.209047318,-0.30369243,8.809761047,-2.862843752,-64.1318512,7.496217251
1149,4.761151791,-0.311159641,8.907676697,-1.532907128,-59.40542603,4.570399761
1150,5.140274525,0.677650809,9.107800484,-4.552406311,-55.61151886,0.057616401
1151,5.413594723,2.018358707,8.65694809,-11.10297012,-55.86082077,-3.197570801
1152,5.379293919,2.20643425,8.471340179,-7.469347477,-52.98518372,-3.214227438
1153,6.995590687,0.825665295,8.149730682,2.572142363,-52.87074661,-0.10962984
1154,7.996111393,-0.252410978,8.460737228,10.94051456,-46.53607178,-1.656431556
1155,8.509296417,-0.164220929,8.395005226,11.10787868,-45.49237823,-5.985331059
1156,8.671280861,-0.002916649,8.208382607,13.20910645,-39.268116,-13.24636745
1157,9.103406906,0.255871624,7.988040924,16.04766083,-34.79208755,-18.74917221
1158,9.39509964,0.602528572,7.598068237,11.42810631,-30.31433296,-17.11054611
1159,9.761684418,1.080556035,6.618143082,-3.699138641,-17.12098122,-9.037319183
1160,9.682294846,1.085739255,5.565702438,-27.32087326,9.862417221,0.979176581
1161,7.976971626,-0.198075652,6.306465149,-52.04948807,50.45866013,9.093510628
1162,8.67702961,-0.688664615,7.053046703,-48.13172913,90.41873932,3.596194029
1163,10.89204025,-1.562668443,8.389413834,-26.00973129,109.8812714,-10.67774677
1164,11.36414719,0.377577931,9.526015282,-0.127383202,103.8230972,-5.671424866
1165,10.60471058,2.505237579,8.034088135,15.31530762,95.18339539,-3.184537649
1166,11.69471836,2.647128344,5.599335194,8.996021271,90.5227356,-7.619431973
1167,11.64805412,0.602217674,6.037281036,3.483322144,105.2234879,-4.95591116
1168,11.09726048,0.095684066,5.83145237,11.44520855,97.89524841,-2.709052086
1169,9.732725143,1.022049665,3.72128582,11.45668221,85.44363403,-1.316853881
1170,7.121489525,1.516068578,3.698787689,8.870959282,83.05303955,1.011854529
1171,4.808986664,1.768694401,5.478740692,-1.8992697,101.1032028,5.790139198
1172,3.61011672,1.318913221,6.557005882,1.818840742,151.1728821,8.633740425
1173,2.721797228,0.523510337,6.882718086,-0.144188195,201.372345,13.40132332
1174,1.18991828,0.455946147,6.150270939,-0.526975155,234.7660828,13.36843872
1175,-0.176441997,0.525236726,4.941402912,-19.11360931,240.3944092,15.03201008
1176,-0.321791053,0.883543372,4.488024235,-41.92155457,231.1849365,15.89073944
1177,-0.18264915,-0.201855823,4.8132267,-45.58493423,217.0099945,14.93207645
1178,-0.676284432,-0.201401338,5.710440636,-44.9509201,196.9485779,14.5363245
1179,-0.625394464,-0.761749983,7.202489853,-31.33171463,178.6973724,12.9273119
1180,-1.483039737,0.190081924,7.900601387,-28.06517792,163.9001465,7.664389133
1181,-2.534230709,-0.137091637,7.448368549,-4.743193626,145.3205566,11.66409111
1182,-3.621981859,-0.438915044,7.505916119,-3.948602438,128.7754211,9.051329613
1183,-5.631579876,-1.192832708,6.575589657,3.720570564,100.6427689,8.85671711
1184,-1.232522368,-0.906889558,8.959736824,16.24041939,76.79125977,6.120006561
1185,-0.913312733,-1.493916869,7.043153286,4.698719978,49.92766953,13.10209656
1186,-2.447073698,-1.302115917,8.91910553,9.222507477,33.03738785,7.716307163
1187,-3.334470749,-1.259316444,9.237448692,7.890609264,21.66756821,3.014300585
1188,-2.952724218,-1.561393857,8.698669434,30.3135128,7.639026165,0.14250955
1189,-2.706249475,-1.432173252,8.129611015,42.09436417,-12.21654129,-5.201879501
1190,-3.180874348,0.155419707,7.457715034,43.66049576,-21.79519272,-10.8710022
1191,-1.714447856,0.666247964,8.7908144,37.56126785,-43.33253479,-7.405238152
1192,-0.592821121,0.856042683,9.11528492,32.86621094,-69.43373871,-4.855597496
1193,-2.027527332,0.950259805,9.784475327,26.37293243,-87.14120483,-5.671496868
1194,-2.862357378,0.941851258,9.939154625,18.02265167,-91.8436203,-4.660182476
1195,-1.192902327,0.971679568,10.00814915,10.19802284,-106.9698029,0.219548196
1196,-0.634534359,0.991675496,9.903957367,3.324337959,-110.4960098,1.794169903
1197,-0.536574304,0.664232016,10.07750511,-1.527420163,-109.4342651,1.7974087
1198,-0.007937372,1.130606651,10.10543728,-5.607655048,-105.7711868,2.445802212
1199,0.665082335,1.37732935,10.42532825,-5.103557587,-104.1068954,6.165468693
1200,1.99037075,0.803689182,10.68751907,-6.842357159,-111.5423813,8.674968719
1201,2.051769257,0.062349036,10.20740128,-4.672456264,-115.2860641,8.919389725
1202,2.093335629,-0.499871403,10.1971302,0.615414917,-119.9217682,11.2630167
1203,1.995249152,-0.048066512,10.07018661,3.21263957,-120.7020111,12.25074196
1204,2.40007329,0.580432236,10.45520401,1.882326126,-114.0133514,11.61240101
1205,3.081584215,1.196635604,11.09896183,3.602186203,-106.1038589,8.018619537
1206,3.792932034,1.183230042,12.09007263,6.175274849,-105.8371048,6.821586132
1207,3.673839808,0.765814066,12.97974396,5.746036053,-107.5430298,8.776297569
