PacketCounter,Acc_X,Acc_Y,Acc_Z,Gyr_X,Gyr_Y,Gyr_Z
1199,6.557966232,-0.288178712,2.871183872,48.14186478,-41.50616455,-13.03781796
1200,7.12602663,-1.083593845,2.603649378,25.52646065,-35.96415329,-11.62961864
1201,7.828837395,-1.828750134,3.136314154,23.2361412,-30.30509949,-10.30669594
1202,7.243821621,-1.383056283,3.551669359,32.43151093,-25.77453041,-9.431425095
1203,7.358679771,-1.998873711,3.732123137,33.0178299,-23.56315994,-7.886902332
1204,7.938822746,-2.473967314,3.888317585,34.46898651,-19.45674324,-5.264527321
1205,8.361618996,-2.293060541,2.856058836,42.57393646,-18.34062386,-2.453984022
1206,7.935071945,-1.772646427,3.790816307,59.08143616,-11.3856802,-4.194261074
1207,8.396486282,-1.253117442,4.874857426,45.35985947,4.882271767,-7.365742683
1208,8.889270782,-1.560231805,5.102136135,27.77510452,4.851527214,-4.869039536
1209,7.842495441,-1.378208637,3.713566303,43.66785812,-6.981903076,-0.494366974
1210,8.851938248,-1.962313294,4.577507496,46.34498215,0.910493493,-1.434923887
1211,9.14851284,-1.610075116,4.727855682,52.36521912,5.011807442,2.723840952
1212,8.557434082,-0.635690093,4.282051563,47.34663391,6.864598274,3.524662495
1213,8.467002869,-0.934258103,4.936384201,37.05540085,10.66170788,6.393751621
1214,8.512060165,-2.051560402,4.354793549,29.27456284,10.05484676,10.27091599
1215,9.60236454,-2.323593378,4.892747402,30.86984634,19.32913971,13.09114742
1216,9.441470146,-1.20833981,5.029651165,34.0439415,23.89956284,15.71238041
1217,8.929738045,-1.081497788,5.779631615,32.77510834,28.23874283,16.01068687
1218,9.047168732,-2.053184509,5.403913021,33.586689,22.72635078,18.66017914
1219,9.028755188,-2.585656881,6.235058784,30.55964279,27.21464157,17.33905602
1220,9.690270424,-1.983747959,6.156710625,29.09166527,27.8993721,18.99076462
1221,9.30633831,-1.613844752,6.022964001,30.72117424,30.13840485,25.68708229
1222,8.506303787,-2.155784845,5.129926682,36.62919998,31.28684998,25.9368763
1223,9.170278549,-2.875650167,5.007661819,42.01799774,35.07162476,19.8075161
1224,8.99697876,-2.286151171,5.595009327,41.4116745,41.48245621,19.0352993
1225,8.734242439,-1.580396891,5.755650043,36.44003677,45.1421051,15.449193
1226,8.595214844,-1.898108959,6.296178818,30.19367027,48.85051346,16.5720253
1227,8.071234703,-1.80083549,5.523183823,36.94820786,45.26235962,21.15939331
1228,8.422451019,-1.714344144,5.059271812,30.78568459,35.2303772,18.51683617
1229,8.214940071,-2.003084183,5.028962612,27.94792747,38.34175873,26.77714348
1230,8.916286469,-1.230436444,5.232586861,23.70197487,37.08994293,25.45598602
1231,9.441635132,-0.752329588,5.371459007,25.71176147,35.88757706,26.50152397
1232,8.975549698,-0.738136709,5.199902058,23.85182571,31.89730835,31.41359329
1233,9.137083054,-1.565525055,4.805401802,27.25498772,27.34488869,21.67464638
1234,10.12262154,-2.741759062,5.956439018,26.86650276,28.28686523,16.63073158
1235,10.22792149,-1.606241465,5.888207912,29.75751305,23.32547569,16.57710266
1236,10.16547394,-0.593006432,5.608839035,31.7653656,15.46988487,17.00706673
1237,10.29990768,-1.94480443,6.089578629,31.52177048,15.1069479,19.30477715
1238,11.32971859,-3.299480438,6.827092171,28.4621582,14.33657074,14.29484558
1239,11.97260475,-2.572811127,6.861430645,26.37496758,10.84719276,11.84425831
1240,11.80279827,-1.570288897,6.232274532,30.22871017,11.8322506,9.954332352
1241,12.25571823,-1.835568666,5.529568672,24.46190071,13.23298836,7.708696842
1242,12.34527683,-2.003889322,5.024810791,27.26761436,22.50409126,6.399176121
1243,13.38099575,-1.454646826,5.188736916,23.52973366,27.70028305,4.239401817
1244,13.61671066,-2.239608526,4.921565533,4.554125786,41.06110001,-0.0035858
1245,13.88484383,-1.769728541,3.860860586,-3.635712624,46.89587784,-3.118267775
1246,13.76183605,-0.99400425,3.016855001,4.225640297,41.27728653,-0.237200633
1247,13.87238884,-0.636796832,2.856383085,4.157381058,49.48662186,-1.095618606
1248,14.45482922,-1.072788835,2.804676056,-19.50792122,68.94072723,-5.807939053
1249,14.75119972,-1.598668337,2.915144205,-41.47213745,85.61998749,-9.085834503
1250,14.49141026,-1.949402928,2.380149603,-39.38127136,86.42442322,-7.759712219
1251,14.16113377,-1.502634764,0.652030289,-26.54185677,83.44503021,-5.613188744
1252,13.21361256,-1.562973261,0.400511563,-39.21987915,104.51828,-5.172097683
1253,12.60436058,-1.969078779,1.118189573,-42.11713791,145.3379822,-1.641458035
1254,11.7202816,-1.451804161,0.761115313,-24.95036125,154.2000732,2.546857595
1255,11.03719521,0.059830438,1.669611692,-8.095088005,144.5542145,-1.458091259
1256,11.66481972,-0.419809312,3.682517767,-20.77972221,130.1410522,-2.94919467
1257,11.45000172,-2.658842564,4.224387169,-36.38664627,114.5959625,0.126904562
1258,10.33494377,-3.03125596,4.679667473,-19.46292686,79.2244339,10.99107456
1259,10.20905399,-2.422159433,5.35684967,15.17103672,35.33996964,15.34146595
1260,9.056483269,-2.61925149,5.739256382,27.18497276,6.541655064,1.134658456
1261,6.620764256,-3.28194809,6.548631668,31.49300575,-8.624052048,3.838089943
1262,2.42841959,-3.434346676,8.892900467,30.1907959,-17.22810936,17.66592789
1263,-1.60590744,-2.698616982,9.909837723,24.39267921,1.347096801,10.38345909
1264,-0.073118672,-0.524992228,10.16817188,10.54818535,4.74998951,14.4756279
1265,3.818016529,-1.283370852,10.60578537,-0.106600165,-3.987607002,16.67162514
1266,4.281700611,-1.28483057,11.0006609,-7.278831959,6.288881302,7.023018837
1267,4.176120281,-1.522446513,12.0555582,-1.946959138,21.44298744,-2.732937336
1268,3.837572098,-1.547137618,11.9100771,-0.824961424,26.12657166,-0.746266186
1269,3.876779318,-2.564342737,10.66332245,12.74574661,32.38349915,-3.207056761
1270,3.185585976,-1.618638396,10.07233047,27.0869503,27.58036613,-2.40815711
1271,2.701797724,-1.498945236,9.136034012,22.5031929,9.472844124,1.529177308
1272,2.551702261,-2.351820946,7.973525047,14.09240723,-5.426849365,2.925043583
1273,3.011532545,-2.204400539,8.64329052,10.29025745,0.0663177,3.399529934
1274,3.851988792,-1.708699107,8.937394142,-2.146075249,4.58439827,2.94355917
1275,3.405848742,-1.345661402,8.949214935,-4.024562836,7.381767273,0.371070445
1276,3.548914433,-0.856347322,9.373716354,8.079866409,15.65718651,-3.46252656
1277,3.982254028,-1.088778734,9.992854118,8.699391365,23.30209541,0.173532814
1278,3.994822741,-1.830263138,10.42821598,-5.59356308,15.6888504,2.106832027
1279,3.684822083,-2.146371365,9.821238518,-7.562298298,14.95491791,3.373394489
1280,3.764776468,-1.725997925,9.420631409,-2.330289602,12.36072063,2.706470013
1281,3.403436422,-1.449039936,9.709075928,-4.377206802,10.18018246,8.792307854
1282,4.190515518,-2.028204679,9.794822693,-11.38881588,15.85173702,10.73780918
1283,3.670520544,-2.637744665,9.595651627,-12.41834736,26.67549133,10.27021027
1284,3.83996582,-1.837515354,8.757912636,0.104327343,33.70230484,6.757407188
1285,3.669159889,-1.458149314,8.098223686,13.27729416,40.47234726,8.307732582
1286,3.012297153,-1.111399889,8.534365654,10.97979355,45.11813354,5.824327946
1287,2.737207413,-0.715973318,8.957241058,-11.08619976,55.54983521,6.185800552
1288,2.177494526,-1.199676633,8.260379791,-20.02536774,60.16090775,2.797336817
1289,2.278333664,-1.801599145,8.353171349,-27.81827164,61.37918091,5.824171543
1290,0.81695199,-2.046478748,7.887123108,-19.00349808,50.53098679,1.046052575
1291,0.568052769,-1.610838294,8.359438896,-4.269990444,30.72536659,0.498424798
1292,0.953366697,-1.759472251,9.381849289,2.150580883,23.23421288,-2.209995985
1293,1.006239653,-2.264881134,8.470132828,12.98775482,2.99567008,-4.389213085
1294,0.669206381,-1.862100124,8.57461071,25.49986267,-17.49913406,-8.736908913
1295,0.783720613,-0.662439048,8.596981049,26.15645981,-44.83386993,-10.79287052
1296,1.463387728,-1.526170015,8.438019753,16.17126846,-70.36649323,-14.20998383
1297,1.965079069,-2.37495327,9.089996338,5.852292061,-88.69210052,-16.44468689
1298,2.764807701,-2.477917194,9.889476776,-2.057007313,-101.2440414,-19.19595146
1299,3.393863201,-1.763378024,10.83993626,-15.60019684,-108.1171112,-24.97400093
1300,3.53372407,-1.087414622,11.02787685,-24.63094521,-123.8663025,-24.59353256
1301,4.373137474,-1.634257555,10.9239397,-10.42512417,-143.783905,-28.48523331
1302,6.040746689,-2.185932159,11.73465633,6.95076704,-156.8317108,-30.66360855
1303,7.540448189,-2.651682615,12.65330791,15.0434351,-174.0503082,-27.92482376
1304,8.343977928,-2.915718079,13.87808704,13.82011604,-182.6464081,-20.35344887
1305,9.142375946,-4.088818073,14.06935596,3.412739515,-161.6647644,-23.7735424
1306,9.982260704,-4.159534931,14.18900585,15.60603142,-148.4390259,-24.41550446
1307,9.628832817,-3.178434134,12.37132168,17.98697662,-124.1448059,-16.4719944
1308,9.741078377,-1.668430448,9.914678574,4.019300461,-82.37389374,-10.52793503
1309,10.22175598,-1.299663186,8.998192787,-1.807493091,-27.30769348,0.167526722
1310,11.47748184,-2.190112114,9.681908607,-18.36524391,19.93149567,11.53120995
1311,13.09904766,-2.928611994,9.262260437,-42.35779953,63.63172913,22.75738716
1312,13.26764488,-2.85152173,6.141878128,-23.20331764,96.70940399,32.42050934
1313,12.66513062,-2.530185461,3.737935781,5.452677727,129.8720245,30.37908745
1314,12.0454731,-2.58296442,1.1308887,21.05155945,159.4975281,27.58272171
1315,10.10555077,-1.231364846,-1.340318918,43.44944763,188.2897034,23.82182312
1316,8.393252373,-0.005791511,-2.274871111,42.9742775,221.7471924,20.45542908
1317,5.35639143,1.321293592,-2.060890675,40.7532959,256.6871643,19.59453201
1318,0.81683439,1.008564115,-0.598669112,38.14522171,284.8321838,24.38821793
1319,-3.37456131,0.448718458,3.572654009,36.03757095,272.6372375,19.89016533
1320,-5.236097813,1.210706592,3.546960592,-46.09519958,236.4238586,29.97817612
1321,-4.820170879,-0.555071294,4.765054703,-26.63959503,185.6622162,32.11881638
1322,-2.954836845,-1.724499822,7.379518986,-14.24857521,131.3441315,29.57978439
1323,-2.824275494,-0.896250188,7.461294174,21.73844337,91.11161041,29.40957642
1324,-3.855879784,0.472263545,6.340022564,48.69184494,51.34995651,20.03069115
1325,-2.9815588,1.224397063,6.496447086,30.25641251,12.33289242,10.30211639
1326,-1.784375548,-0.721125126,10.09742641,-19.67558479,-1.743664503,10.1740036
1327,-1.529547095,-2.057271957,12.22650623,-34.45094681,-0.504649222,6.460326195
1328,-0.966046274,-1.214336157,11.43856239,-15.77237415,-19.5894928,2.370492458
1329,-0.007160187,-0.930056453,9.269635201,-3.314981461,-52.4153862,-0.011180053
1330,-0.356208205,-0.884480178,8.440394402,2.172743797,-81.38867188,-1.867311835
1331,-0.879565954,-1.919728518,8.785189629,-3.981121302,-103.8816376,-6.483923435
1332,-0.278035671,-2.179964781,9.58840847,-21.02828598,-120.6008453,-9.342600822
1333,0.762963951,-2.007103443,10.28836823,-24.88818932,-136.0099487,-12.01842117
1334,1.646926641,-2.290342569,10.66656303,-18.10746002,-146.9564056,-18.1842289
1335,3.330425262,-2.935128927,11.34163761,-5.059789658,-155.9132996,-29.06987953
1336,5.488625526,-2.627577305,11.94531631,26.77306557,-163.7688751,-31.31020164
1337,6.815648079,-1.029047251,13.667799,60.84121704,-174.319458,-20.3511734
1338,6.882105827,-0.575495422,15.74093628,53.97161484,-188.7544403,-6.368303776
1339,6.43813467,-2.295644999,15.63720989,27.09706306,-196.6308899,-3.974541664
1340,7.434092522,-2.353003979,14.38390255,15.9691143,-191.4317017,-14.36307144
1341,8.886972427,-2.134990215,14.11140442,12.73882198,-165.9669952,-20.3486805
1342,9.527122498,-1.877053618,12.98997211,-7.722044468,-134.1237488,-24.95104408
1343,10.15011883,-1.537729502,12.42023182,-2.57993269,-102.6210556,-22.01626778
1344,10.31366158,-2.060996294,11.55614758,12.19752407,-61.58459091,-9.84897995
1345,10.70133114,-2.42192173,10.56933594,5.28918314,-3.283484459,-2.001351118
1346,11.86834049,-2.326720238,9.528590202,-3.071265221,35.44034576,9.011281967
1347,12.39072895,-2.084042311,7.946743488,-4.04853487,67.49855804,17.61710167
1348,12.0534029,-1.731286287,5.556255341,14.54045677,91.07276917,18.69321251
1349,10.91249847,-1.230450153,2.817102432,20.261549,109.6436462,22.24308777
1350,10.21064854,-1.224957585,1.781994939,14.27664757,139.2840424,25.39012527
1351,10.24548626,-0.194540143,0.822651744,7.920246601,163.4552155,26.64677811
1352,6.975178719,0.574532449,-0.386213452,12.24683571,198.6037903,30.75955963
1353,3.992768049,0.270693094,-0.066761479,5.545628548,231.9106293,28.48286438
1354,0.704670846,0.241362944,2.289015055,-11.53631306,271.1662292,28.81435585
1355,0.23500149,0.933752418,4.216125488,-41.61804199,296.3103943,35.03860855
1356,-0.717585206,0.68882376,4.297556877,-49.47661972,283.717041,37.54772949
1357,-2.361266375,-0.403428406,6.72674036,-69.09066772,244.9247437,47.70795822
1358,-4.558098316,-1.481284618,7.766012669,-87.30987549,189.3635101,45.8973465
1359,-4.59406662,-1.693358183,9.693835258,-59.87850189,140.6696472,42.53216553
1360,-4.288175106,-2.2706213,7.447861195,-21.74906349,96.83900452,31.96312714
1361,-3.171480417,-1.733065605,6.604838371,28.109375,63.63887405,16.87471771
1362,-2.749805212,-0.458284169,7.816706657,13.07593727,23.87587166,11.10020542
1363,-1.94979012,-0.36460188,11.5727644,-7.251015186,14.97558975,6.095310688
1364,-3.108146906,-1.817451239,13.5590601,-26.32305336,6.730164051,0.013741248
1365,-2.151429653,-2.804125786,11.97887135,-21.73612976,-16.22569466,-6.643369675
1366,-0.45687893,-2.710292101,10.56058311,-3.582580566,-51.20378494,-16.50352478
1367,0.044199921,-1.660077929,11.00551891,-8.681729317,-85.11952972,-18.9064579
1368,0.039031804,-1.893939257,11.35262299,-10.53947163,-106.6638184,-26.96192741
1369,0.220815852,-2.145295858,11.53474236,-4.299950123,-131.1056824,-31.44788933
1370,-0.275109589,-2.063301563,13.54736519,11.18220043,-147.157547,-32.56484604
1371,0.149609029,-2.379281521,11.97492886,33.71734619,-180.3539581,-33.38273239
1372,2.010899067,-3.900161982,12.36633873,33.42640686,-218.3347321,-34.26486206
1373,4.214237213,-4.164385796,11.99774551,39.21105957,-238.5810242,-34.15344238
1374,5.262667179,-3.242254496,13.19730091,35.26460648,-238.4129944,-31.7713871
1375,5.887423515,-2.093152285,12.0336628,34.73071671,-241.3418121,-35.55638123
1376,7.715817451,0.016883112,11.06134892,31.50881004,-253.9437561,-38.85300827
1377,9.161513329,-0.08913213,10.5241785,10.83148098,-252.4840393,-36.62026978
1378,9.32519722,-2.004207134,10.93050289,-10.60272884,-237.2982635,-33.32650757
1379,10.36977863,-4.134131908,11.94237137,-21.07103348,-224.4342957,-37.30148697
1380,11.81523514,-4.016043186,11.80433178,-12.30133343,-204.8829346,-43.96086884
1381,11.64190483,-1.538742661,10.28852844,8.80500412,-178.6075745,-40.25835419
1382,12.47168732,-1.24110353,8.618954659,36.66704559,-147.4147644,-26.57245636
1383,12.35833645,-2.994606018,8.330806732,30.01610374,-77.25272369,-21.54477119
1384,11.06568241,-1.609566331,7.586628914,14.060112,-23.85315895,-16.96317673
1385,11.6297121,-0.686938882,4.572743893,6.18533659,11.18962479,-3.904978752
1386,11.15949726,-0.825791538,1.455048323,0.935075223,63.06843567,6.333476543
1387,10.07938766,-1.044336081,1.350733638,11.98184204,88.22332001,14.85741043
1388,6.433262825,1.116799355,1.341870189,-12.9375906,112.8992386,3.530571222
1389,6.596725941,2.24968195,0.689765811,-40.82952499,95.07227325,18.74458504
1390,1.545296788,1.306142807,-1.634702802,-51.18236923,93.79116058,31.04143524
1391,0.893109441,0.270536065,-2.465690374,-83.84067535,114.9985428,12.48441887
1392,-0.538864553,-1.233406782,0.662021577,-66.01039124,139.0625153,26.62344742
1393,-0.300551116,-2.69815135,3.972542524,-48.84054565,114.8207932,19.03850746
1394,-0.586454511,-1.618574381,5.616909981,-10.11401653,73.92132568,8.779971123
1395,-1.455896258,0.52622062,6.082052231,19.89411545,35.52395248,10.99874496
1396,-2.046977043,0.709044576,6.557964325,19.28480148,15.6897049,8.795761108
1397,-2.170850992,-1.044241905,4.892501831,15.48467922,-12.70624065,11.47418404
1398,-0.886541963,-3.989693403,5.896160603,10.13047314,-21.54073143,7.964414597
1399,3.910683632,-3.159215927,7.553231239,-5.146047592,-19.57775116,-3.273371935
1400,4.477313519,-0.134882033,9.983513832,-18.46135521,-24.5904808,0.696193933
1401,2.287547588,-2.102978945,9.711458206,-23.42652893,-45.59923172,10.14809227
1402,2.957736254,-3.197039843,8.75130558,-11.09047413,-58.3572464,9.02550602
1403,4.355453491,-2.310790062,8.701337814,0.242875978,-64.68860626,-0.189748079
1404,5.459083557,-2.17783165,8.566782951,9.903461456,-64.42202759,-9.143078804
1405,6.084269047,-1.218271852,8.175932884,20.38838768,-58.30783081,-15.05238819
1406,6.434518814,-1.093552113,7.837535858,16.28741455,-55.82355499,-19.353405
1407,7.846065044,-2.606106997,8.031001091,4.942912102,-43.8780632,-17.88625717
1408,8.275327682,-4.21963501,9.215508461,17.06887627,-33.42837906,-12.57381725
1409,8.920842171,-3.554686069,10.18709278,29.40406036,-34.64693832,-6.619939804
1410,9.179922104,-1.728114486,10.84039593,27.62246895,-29.46728134,-16.50596428
1411,10.33758545,-2.029361486,10.7302475,5.375870705,-18.31591034,-20.53278732
1412,11.47037125,-3.370110989,10.24145794,6.781851292,-3.301162243,-21.11676025
1413,9.922125816,-2.623676062,9.934557915,39.82194519,12.46562862,-3.510229111
1414,9.656335831,-1.835744977,11.12385845,35.15566635,30.12146187,6.522458553
1415,10.17721558,-1.598590136,10.42879009,16.44932365,66.58042145,10.49228477
1416,9.536540985,-2.116210222,9.212090492,-10.72091389,123.0792847,4.935365677
1417,11.47123623,-2.057960749,8.84233284,9.212514877,155.8594818,15.24480343
1418,9.730751991,-2.821902752,9.321317673,13.7562151,192.8322449,25.44675255
1419,9.212248802,-2.140612364,8.216892242,24.83594322,200.2719879,24.22817993
1420,9.771668434,-0.681026578,5.348265171,20.6264801,202.6847839,28.805233
1421,9.186094284,0.436172485,2.590270281,13.96110249,203.0580292,34.89385605
1422,10.21940994,-0.369808167,1.163077831,5.877027035,225.8749084,35.33457565
1423,9.116823196,1.338239789,-0.103036374,-2.727581263,254.7725677,34.7988472
1424,3.985255003,1.676531434,0.124399416,10.74658489,279.2595825,37.39422607
1425,-2.568866968,1.374984503,1.454290628,9.185665131,287.4554443,42.31258774
1426,-5.604484558,0.840059638,4.662453175,-23.43414307,257.2640076,39.75839996
1427,-4.861382484,-0.350807518,3.327722311,-69.77833557,221.2439728,46.17995834
1428,-8.191133499,-1.276038289,5.532745838,-80.48027802,195.4090576,44.11523438
1429,-4.89687109,-2.64049387,7.664633274,-65.11173248,150.1849365,39.24464035
1430,-5.317146301,-3.16706419,9.259707451,-34.23365402,135.2312164,41.73046875
1431,-4.065654755,-2.318294287,8.411531448,7.485013962,96.00764465,33.07291794
1432,-5.526296616,-0.735961139,6.660943031,31.10521126,50.57500076,21.83972359
1433,-4.538893223,-2.296368122,10.39541721,17.22336388,26.76702309,6.436380386
1434,-3.885584116,-1.353110194,12.18304443,-4.944693089,19.51838875,9.518828392
1435,-7.34831953,0.829668581,9.300461769,9.122290611,15.63946342,-11.16600132
1436,3.358151436,-1.424123645,10.27077007,-16.82724571,-26.59960365,20.83372498
1437,-5.876889229,-1.827643752,10.02163792,0.454897046,-41.36798096,4.34255743
1438,-4.59451437,-2.884090662,9.391992569,-13.58330059,-67.00084686,-7.139562607
1439,-1.809387922,-3.111103535,10.36053276,-22.45215034,-76.55449677,-12.74753284
1440,-1.583175659,-2.452939987,11.70972729,-20.644907,-77.71561432,-16.46290398
1441,-1.427574992,-2.481773138,12.14877605,-26.81161118,-86.43802643,-17.01217079
1442,-0.845758855,-3.178447723,12.01856232,-17.31252098,-99.80702972,-21.23279381
1443,-1.117934942,-3.101176977,11.08808804,3.006955147,-111.1945419,-28.02003479
1444,-0.309892058,-3.493383169,12.03876495,19.53772736,-113.7285004,-34.76342392
1445,0.406885177,-2.992818832,12.45015812,31.2075386,-115.4846039,-35.69429016
1446,0.789555132,-1.336738467,12.31803417,43.92298889,-128.9190979,-34.48997498
1447,0.610325694,-1.254912138,12.61299706,38.00582123,-148.2306213,-35.84386063
1448,1.220452309,-2.243354082,12.37782764,29.32116508,-163.3019867,-33.6699028
1449,2.344586849,-2.241672516,12.28933525,29.4705143,-174.3095856,-35.22793961
1450,3.564685345,-1.854240656,11.3706665,36.46047974,-180.5427551,-36.29983521
1451,4.20750618,-1.934213638,11.37672615,40.86664963,-177.8866119,-32.01245499
1452,5.321465492,-1.879364252,12.42093754,39.25282669,-176.3235321,-27.3833847
1453,6.411714077,-2.037407875,13.7098217,28.89484596,-177.3362274,-25.37478447
1454,7.071309566,-0.934232414,15.33368778,26.80885506,-197.9850616,-21.3736248
1455,7.52046299,-0.908625484,16.31856918,15.99832535,-220.7879791,-27.10781479
1456,8.471546173,-2.632561922,15.7478838,-4.172709942,-233.4804535,-25.50890732
1457,9.420767784,-3.790188074,13.63962746,-10.08411407,-243.3390961,-27.19315147
1458,10.47632027,-1.121119499,10.24593639,-9.943785667,-223.2714081,-35.6219902
1459,10.40256214,1.554152846,7.899075508,-13.36308575,-184.8890839,-24.27983284
1460,12.20871162,-1.125423789,7.777844906,-13.91449833,-150.6016998,-4.424265385
1461,13.55335617,-3.423465729,7.799499512,-8.201351166,-120.4984055,0.894012451
1462,14.41272068,-3.676158428,7.763292789,-12.22956085,-79.45584106,-1.223994732
1463,13.94961739,-2.118958473,7.004572392,-0.768117666,-45.72341919,-0.072612531
1464,13.41127682,-0.192225397,4.005593777,12.89575672,-32.98601151,13.43449688
1465,13.81062031,-0.265515,1.451898456,2.912120819,2.246804953,12.26460266
1466,11.96684074,-0.114573315,-0.283501059,-4.64740181,49.32424164,8.750009537
1467,10.46023846,1.122248769,-0.836061597,-6.548388958,96.1703949,16.86311913
1468,4.797155857,-0.686565459,4.671177864,-56.65293884,85.7268219,35.82582092
1469,2.145822048,-1.474555016,0.213478863,-118.8578033,89.2479248,30.76742363
1470,1.122772813,1.712801218,-6.127264023,-36.79244232,126.1973343,30.20614243
1471,-0.03713531,0.006032564,1.517682552,-4.511931419,133.4168854,24.4494133
1472,1.28223002,0.416362375,5.23913002,-7.016986847,121.6374588,18.04637337
1473,1.437887073,0.213596061,5.920051098,-14.18263054,99.12501526,12.41967678
1474,-0.071893841,-0.424332589,5.095307827,-11.76227379,69.44565582,16.78851891
1475,-0.157374501,-1.667924643,4.65577507,2.327368975,43.99009323,21.39027023
1476,1.048713446,-1.924098372,5.152973175,7.63684845,22.04377174,12.20101738
1477,1.198701859,-1.90302074,6.131560802,-0.698509812,7.79461956,6.761569023
1478,1.529652715,-1.410523295,8.349298477,-15.66426086,10.93838596,1.125289083
1479,1.340278506,-1.180238247,8.392917633,-11.55576611,1.977308154,-6.918545246
1480,0.640022337,-1.750526309,7.480460644,3.845705986,-16.43085861,-4.437686443
1481,1.11921823,-1.90261364,6.666384697,18.48431206,-25.76888084,-9.288544655
1482,3.175572395,-1.490560055,7.216324806,9.922735214,-34.8728981,-8.863407135
1483,3.198796749,-1.039819956,7.789942741,12.54728127,-36.55265427,-4.597427845
1484,2.607160807,-1.4585042,8.703426361,10.61541843,-50.81636429,-6.006171227
1485,3.802876234,-1.373519778,8.36575222,4.198122501,-59.87612152,-6.190002918
1486,5.564651489,-1.891511679,8.496184349,2.005903006,-58.8255043,-10.52062607
1487,7.250847816,-1.565493941,8.411865234,10.24028683,-52.87820435,-6.650303364
1488,7.428892136,-1.455660462,8.354196548,6.396558285,-46.0921402,-4.991390228
1489,7.92215395,-2.382683516,9.091184616,0.206087247,-37.82463455,-4.965252399
1490,7.643823147,-3.040038347,9.282060623,-2.757014751,-25.86576843,-4.216366291
1491,7.825479031,-3.303165436,10.10883141,15.51958847,-24.98655128,-2.65368247
1492,9.838886261,-2.416092873,10.43550014,24.95226097,-33.72550583,-9.479738235
1493,11.21714592,-1.42555213,11.2030468,23.75981712,-27.36297798,-21.92349625
1494,10.98899269,-1.735758424,11.38306046,14.72760105,-2.928880692,-14.9745636
1495,12.77935028,-3.080645084,10.45421696,5.570484638,22.36039925,2.879365921
1496,7.041940689,-3.60314393,10.74046421,25.43710709,22.29475975,11.19160271
1497,6.516916275,-2.796910524,10.416399,7.55649519,59.44587708,5.498514652
1498,10.09013557,-2.86782527,9.819335938,12.93366528,85.44803619,3.242281675
1499,11.19645882,-1.545536637,9.213820457,7.417954445,129.2051392,10.23920631
1500,11.77035999,-1.378284097,8.279003143,4.167117596,175.6649323,25.18942261
1501,10.52453423,-2.124841928,8.114224434,7.562717438,221.0658112,31.16041565
1502,9.336339951,-0.112719275,6.85594368,14.79241371,230.3128357,30.75049591
1503,8.093406677,0.164971143,5.585713387,16.40505409,225.3886261,34.55357742
1504,8.263094902,-1.139199376,3.266645193,32.93982315,205.7396088,36.23067093
1505,8.405563354,-1.556590438,2.048400879,38.15024567,207.345459,31.51215744
1506,7.115042686,1.339544296,0.999608874,48.89380264,218.3336029,33.54700851
1507,3.072467327,2.729005337,2.039242506,47.07064056,238.2763977,35.88166046
1508,-1.155414224,3.213244438,3.236219168,29.89831352,243.7049561,43.75104523
1509,-4.698152065,2.382827044,5.272164345,3.65137434,240.6560669,44.19810104
1510,-5.769450665,0.583630621,6.952798843,-58.21166611,206.555069,45.5535965
1511,-4.808434963,-0.795305848,7.167029381,-82.68131256,177.4065094,46.78906631
1512,-5.113818169,-1.769925237,6.626689911,-62.10404968,152.5415649,40.74868774
1513,-6.874812603,-2.505867958,7.35860157,-30.53403664,113.5390701,38.31026077
1514,-5.824625492,-1.63931942,7.010047436,8.080958366,85.79322052,24.56516838
1515,-14.14914131,-1.055929184,6.051965237,27.47857666,36.70655823,-22.05595589
1516,8.149432182,0.542699575,8.069713593,-9.157388687,25.96785355,-17.57380486
1517,2.484124899,-0.517025054,11.7452879,48.03121948,29.3665657,18.69931984
1518,-6.595257282,-1.990420103,10.75728607,7.12847805,8.745889664,35.4482193
1519,-9.812761307,-1.825974822,10.17276573,-5.979814529,-13.80676651,5.493319511
1520,-3.545995235,-0.811713636,8.649989128,-18.51155663,-40.55562973,-15.76021767
1521,-1.286274433,-1.509804726,9.182319641,-23.50888252,-56.20334625,-10.77160549
1522,-1.897408843,-1.937492251,10.3614521,-21.19402504,-67.05484009,-6.961296082
1523,-2.42654109,-2.023822546,11.25440598,-15.09761238,-72.89247131,-12.67480755
1524,-1.927789569,-2.116963148,11.09119129,-18.21151924,-79.50455475,-19.0770607
1525,-0.648832321,-2.061942577,10.72307777,-16.14212799,-82.17964172,-21.00792503
1526,-0.23953484,-3.597321749,11.02201271,-12.21239758,-86.75034332,-15.11458874
1527,-1.380366325,-4.036214352,11.56472397,-3.040696621,-83.64224243,-19.28412819
1528,-1.341141701,-2.566897869,12.55454445,2.42574358,-84.33146667,-28.02406311
1529,-0.074232906,-2.294630051,11.62572575,16.58512115,-99.22361755,-31.48510361
1530,0.9229424,-2.582305431,11.68343735,27.31974602,-110.7729874,-27.93873787
1531,0.284977734,-1.323570848,12.38983917,28.47601509,-121.5352936,-25.29457664
1532,0.454016447,-0.318105727,11.79839611,17.25711632,-133.1214752,-26.45530319
1533,1.392734647,-0.686625063,11.79378033,9.082903862,-148.2870331,-25.96888733
1534,1.801875949,-2.71497798,12.6061058,-0.701116741,-160.2709656,-25.60678482
1535,2.798874378,-2.501412392,12.72385502,6.913632393,-174.5069275,-24.86371803
1536,3.286289692,-1.02646482,12.12552071,14.44782448,-184.0992889,-22.16832352
1537,4.121601582,-0.919236183,12.32793045,16.92365456,-197.1084747,-18.73416519
1538,4.849626064,-1.786946893,12.95721722,16.07970238,-213.7844391,-15.94853783
1539,5.277728081,-2.600655317,14.10943604,24.41012001,-236.8387451,-23.37298584
1540,5.788869858,-2.966029644,14.82764435,30.94542885,-247.8132782,-24.89770508
1541,7.030063152,-2.327184916,15.75172043,7.711819172,-255.7612762,-27.83185577
1542,8.619052887,-2.325639009,14.18193722,-9.398212433,-264.4183655,-32.3114357
1543,9.849601746,-2.093292475,11.95168114,-17.699543,-261.349884,-29.46802521
1544,10.98135281,-1.950463772,8.663693428,-30.87446976,-244.4098206,-24.82180405
1545,10.9238987,-1.772568583,6.123106956,8.081895828,-213.0194092,-21.23999405
1546,12.27972984,-0.586469054,6.530526161,23.15001297,-170.2794495,-20.02122879
1547,13.99578381,0.756549835,5.705194473,-3.623689413,-131.4914703,-12.51063728
1548,15.01620197,-1.163063884,4.215769768,-42.48913956,-99.75284576,-5.710965633
1549,13.93485832,-1.222480536,4.043807983,-43.13048172,-62.0218277,-3.940279007
1550,13.50623035,-2.060153484,4.752132893,-28.88068008,-45.94668579,-2.215393543
1551,13.21668148,-1.127120614,2.000288725,-15.56399536,-40.64710236,3.732006788
1552,13.40040207,-0.734109163,-0.622430444,-26.47310448,-4.069921017,10.61401653
1553,12.04603577,-0.615262389,0.92454052,-12.97237682,26.07604599,15.95234203
1554,10.75282955,0.172639385,-0.270741343,-9.396659851,49.89113235,19.30214691
1555,11.64510155,-0.50704658,-0.197916105,-11.07772446,97.47315979,30.25523567
1556,8.776492119,-0.663538873,0.348555088,-6.676346779,151.0814819,22.71008301
1557,7.215004921,-1.749864817,6.340677738,-62.12128067,207.6854706,25.56694221
1558,1.751386046,1.634107232,0.447545767,-106.165535,176.3595886,45.5238266
1559,0.247340217,2.492499828,-5.012999535,-4.869451046,177.5020142,38.43977737
1560,1.858491421,0.508957803,-0.745606363,-18.78896904,173.9459534,37.06868362
1561,1.77630949,0.128865018,1.371767759,-7.058049202,158.7476959,37.17276764
1562,0.509589314,-1.059912443,3.040228844,-10.63305378,148.1721191,24.95815849
1563,-0.198919594,-1.315309405,3.398971081,0.035559002,128.7592926,27.91262627
1564,-1.281695843,-1.067398429,4.862574577,10.35926914,104.5267944,15.86758804
1565,-1.098876119,-1.955714226,5.075134277,10.15977478,72.77685547,9.096225739
1566,-0.102159694,-2.006006241,7.076162338,4.625814438,59.15078354,8.521681786
1567,0.419925928,-2.54916501,8.578074455,9.667661667,51.78507233,10.85071278
1568,-1.122060537,-2.437340498,7.117666245,32.56941986,32.7623291,17.16067886
1569,-1.860247374,-1.090841651,6.829435349,25.698452,11.34469032,12.68918228
1570,-0.351723045,-1.463873029,6.850729942,15.34930706,-6.753923893,9.460619926
1571,0.290552318,-2.857923985,7.499978542,13.80996609,-27.26518822,3.961248159
1572,0.647462606,-1.923003554,8.243638039,18.44945717,-50.44901276,0.007242065
1573,2.445247889,-1.520429134,8.693228722,11.82736206,-76.84042358,-9.278106689
1574,4.308321476,-1.489670277,9.279342651,-4.448432446,-91.16608429,-12.87801743
1575,6.114554882,-2.907189608,9.597174644,-12.56681442,-93.18177795,-5.318809509
1576,7.163927078,-1.987254381,10.22038174,-0.233503759,-82.41525269,4.002278328
1577,8.166944504,-1.109180689,10.94513702,-8.901396751,-75.92974091,3.142999411
1578,8.325419426,-1.671802759,11.70253277,-12.54565525,-68.10021973,-7.794174194
1579,8.811963081,-2.58263135,11.70582581,-20.90730286,-51.48435593,-9.863598824
1580,9.929040909,-2.826957941,12.40070248,-24.09233665,-38.51728439,-6.729934216
1581,10.85312843,-3.504262924,11.50677204,-23.03396034,-17.38950729,-4.740931034
1582,11.84366417,-4.267123222,10.05100632,-22.93924904,7.806600571,-2.820610762
1583,9.899294853,-4.746600628,9.436149597,-3.985684872,25.49752808,3.194474936
1584,7.412842274,-2.404610395,10.09570026,-3.636334658,46.90072632,8.504099846
1585,7.981157303,-1.030924082,9.316625595,0.324281543,69.3218689,8.270475388
1586,9.872200966,-3.333985567,9.792752266,-27.97151947,100.0897751,15.99507523
1587,10.27035809,-4.800019741,10.18876362,-41.21460342,126.143158,29.69271469
1588,10.62671757,-4.450360298,10.42617798,-34.26232147,153.7876434,36.76844025
1589,10.52462578,-3.734036922,8.277148247,-11.77949047,177.6452179,45.33280563
1590,8.634576797,-3.472412109,5.61303997,36.98132324,201.6039124,42.7315979
1591,6.963679314,-2.929522753,4.757555962,48.88966751,211.4232635,42.23075485
1592,6.585049629,-1.834451199,2.388192892,41.93914795,213.7004242,42.0214653
1593,6.063586235,-1.790573359,1.674193501,33.61135864,214.263504,40.04606628
1594,4.17632246,0.71222198,1.254499316,39.86915588,226.1945953,43.02811813
1595,0.393473446,0.46878469,3.258383512,43.33010101,236.3539124,44.32365417
1596,-2.520250082,-0.734169483,4.90564394,37.79533768,237.826828,42.1092186
1597,-3.690272808,-1.34657681,6.835385799,14.2732296,218.634552,47.03240967
1598,-5.33518219,-2.060530186,8.051656723,-9.500348091,196.6108704,49.81812668
1599,-5.334323883,-2.46714282,8.081235886,-28.92559624,166.021759,49.92693329
1600,-5.442131042,-2.145369053,9.019457817,-17.59952545,143.344696,46.78374481
1601,-4.832220554,-2.392858505,10.2215271,-25.66962624,129.7742615,41.07868958
1602,-6.219995975,-1.880311489,8.947642326,-2.60595274,104.0655594,33.86790466
1603,-9.601653099,-1.003570437,7.796285152,33.5303688,71.34436798,-10.14730358
1604,3.03202486,-2.183718204,12.12887192,-8.176314354,36.22457504,10.01406765
1605,-2.667273283,-1.21216464,10.73925018,34.20647812,15.5681839,16.43458939
1606,-8.342802048,-1.755389333,10.72169304,11.9876318,0.422251165,-1.401239395
1607,-5.394825459,-1.583400011,10.43687248,11.92267609,-31.76278687,-20.31598473
1608,-2.016759634,-0.94076407,9.083868027,9.655451775,-71.12796783,-13.33078384
1609,-2.029116392,-1.909360766,8.980325699,1.831976771,-101.1954727,-9.599829674
1610,-1.980743408,-2.719048738,10.42232704,-9.346349716,-108.0027847,-18.13482285
1611,-1.987718105,-2.186678886,11.45484829,-14.8149147,-105.3964005,-29.19386101
1612,-1.644447684,-1.189944029,11.18067837,-9.674062729,-119.0425873,-39.03808212
1613,-0.518563449,-1.389954329,11.05041599,2.716280937,-139.3907776,-47.69437027
1614,0.107277006,-2.589211464,11.63483524,7.499214649,-158.1124115,-46.41736603
1615,0.098020613,-3.065184355,12.04694843,18.70651054,-176.1958313,-45.06936646
1616,0.843007922,-3.026823521,12.5134201,30.80157852,-191.5764465,-45.40354156
1617,1.730776668,-3.038885832,12.8970871,29.27475166,-210.5503693,-45.03435516
1618,2.911270618,-2.727899075,12.60252094,33.49010086,-229.0815887,-40.43021393
1619,4.337340832,-1.32715261,11.6890831,36.6523819,-239.2033386,-38.58641434
1620,6.697645187,-0.826861084,11.15413094,43.06416321,-236.9604645,-40.18984604
1621,7.732003212,-0.888052642,10.7098217,33.34991074,-231.8244629,-41.62926102
1622,8.66912365,-2.097238064,11.68865681,20.41077995,-228.5531158,-38.03725815
1623,9.41415596,-2.597061872,12.8200407,8.794421196,-225.9992065,-36.02879333
1624,10.40899563,-2.562873125,12.40904045,9.242749214,-223.5666809,-34.14250183
1625,10.94350529,-1.546550035,10.72665405,29.28148842,-210.1539612,-27.14024925
1626,13.42947197,-3.105530024,10.46805286,26.43607521,-167.7751465,-23.18950081
1627,13.44882774,-4.105505943,10.44061279,5.948651791,-92.90653229,-27.69157028
1628,11.54142761,-2.162056684,9.357962608,4.096840858,-59.55043411,-21.66039085
1629,10.80274105,-0.708403885,6.173644066,1.508819461,-35.89779282,-9.894016266
1630,10.13001347,-0.471419245,2.746537685,-4.818313122,2.636885405,-5.37577343
1631,10.41432285,-0.41265586,1.029962182,-0.543990672,36.56320572,5.990653038
1632,9.78745842,0.6547032,0.409543425,4.362106323,80.6269989,14.61986446
1633,6.609848022,-0.819968939,2.544594765,5.571395397,111.8164444,21.93590736
1634,4.326771259,-0.931039512,3.939577103,-57.57357788,88.79346466,17.60020638
1635,1.079501271,1.35356164,0.247909486,-80.95597839,92.62714386,22.54209137
1636,-1.217022896,-0.210051998,3.108714819,-83.92199707,111.0773544,10.14175701
1637,-0.547188282,-2.039919138,4.598464012,-70.66725922,82.40985107,14.42120647
1638,0.706769645,-1.861196041,6.071784019,-34.09002304,61.26970673,13.70127964
1639,1.453476429,0.25082776,6.21703434,-10.71468735,46.88116074,2.770362854
1640,1.770236611,-0.489736229,7.425177574,-19.29147148,40.6230545,7.500843048
1641,0.30217129,-0.15920344,7.521625519,-22.01072311,17.01299667,9.810507774
1642,-0.467483163,-0.049102619,6.836558342,-17.91459846,-13.97898006,10.5938139
1643,0.43535322,-1.549016118,6.864312172,-27.13048935,-27.38231468,13.79973698
1644,3.304368973,-3.638499737,7.924088478,-26.37985611,-22.97733116,14.53544044
1645,3.637483597,-2.985929012,9.884479523,-24.60725212,-18.2141571,13.66636944
1646,2.68634963,-2.06807971,10.0055933,-28.60335922,-34.58413315,10.46388435
1647,2.091496468,-1.932141781,9.346746445,-10.56519604,-51.73196793,6.703833103
1648,2.974093199,-1.877701044,9.345030785,3.346851826,-67.14070892,1.824882507
1649,4.466946602,-2.560220718,9.636216164,2.410848618,-74.48362732,0.730943024
1650,5.296508789,-2.552809715,9.146709442,2.090547323,-72.61646271,-3.269272327
1651,6.041561127,-1.845062256,8.782178879,21.09650612,-65.5956192,-6.3997612
1652,6.912639618,-1.254502296,7.964205265,21.58454323,-59.63816452,-4.435350418
1653,7.392011642,-1.776413441,7.708086967,13.27413368,-58.02176666,-6.952039242
1654,7.498016357,-2.654948473,8.594237328,15.21156406,-54.6486702,-9.143480301
1655,8.189816475,-3.115137339,9.578584671,24.70599937,-46.78074646,-10.63246727
1656,9.96420002,-3.784640074,10.4707613,34.91516495,-34.23067474,-17.13037682
1657,9.855625153,-2.926012993,10.55935669,29.51755714,-19.10389709,-17.1984024
1658,10.22116661,-2.220491409,10.22413158,44.9590416,-11.67023563,-19.46332741
1659,9.064047813,-2.740409374,11.39754486,16.67517853,16.41670418,-24.33437347
1660,8.275485039,-1.638279796,9.77233696,-4.604971886,31.06138611,-15.89942932
1661,9.092020988,-3.291154861,9.109509468,-11.80594158,60.37953568,-5.604921818
1662,9.885928154,-2.742715359,8.91966629,-17.82627487,98.47860718,6.698105335
1663,9.933300018,-1.712470889,8.393971443,-21.71988487,134.135788,18.64266586
1664,10.38553429,-1.993889928,8.110033989,-11.09556198,169.6484985,34.73684311
1665,10.25072956,-2.711349964,7.128486633,-16.76567078,214.1900787,40.57937241
1666,10.1740675,-0.258257508,3.756535053,9.748492241,222.3463135,38.62736511
1667,8.083919525,1.286862612,1.786145687,6.739507675,218.8188782,40.76210403
1668,5.732695103,1.380135417,0.217916787,-23.25790215,223.3083038,44.09012985
1669,3.943012238,0.101861991,0.60829699,-13.88178921,208.0448303,53.4083252
1670,2.140740395,0.144891292,2.309552193,-28.61676598,208.7548218,59.82273102
1671,-0.225774378,0.736614227,4.274707794,-31.74019432,218.4272461,64.84583282
1672,-2.397978783,-1.35154438,5.635284901,-35.70971298,220.3027802,72.95104218
1673,-2.523426294,-4.51074028,6.868535519,-60.97634888,212.8067017,78.71735382
1674,-3.552915573,-4.964920521,6.864310265,-71.45358276,202.4873199,81.18712616
1675,-5.050693989,-3.659355879,9.074399948,-71.70385742,180.4891968,75.41525269
1676,-6.451138496,-3.824715853,9.001624107,-50.23966599,130.9775543,67.70875549
1677,-5.126096725,-4.872672081,11.33243561,-41.34057617,108.7094879,52.1894989
1678,-4.417276859,-2.987361193,9.745118141,-11.83138561,84.47048187,37.09654999
1679,-4.263581276,-1.530823708,10.09172249,42.60328674,68.0593338,26.65085793
1680,-5.927687168,-1.924158096,11.21889305,37.80469894,43.53761673,0.859309614
1681,-1.237511039,-0.750961423,10.53456688,11.49220181,24.02134323,9.506404877
1682,-3.871571064,-2.334328651,10.96883774,7.563907623,5.768226147,8.279079437
1683,-5.510755062,-3.663660049,9.789585114,-1.891202331,-26.73992348,-11.35777378
1684,-2.913249493,-3.658358812,9.299387932,27.68175316,-58.27406311,-21.92489243
1685,-1.275283694,-2.987829447,9.741065025,30.73903847,-83.16199493,-28.30084229
1686,-1.969049335,-2.232350588,10.72633648,21.63158607,-103.9548416,-28.19317627
1687,-2.651135921,-2.693338633,10.51595402,5.332017422,-117.8496704,-31.13620377
1688,-1.339596987,-3.387419701,11.18163681,-5.293615341,-130.0817413,-36.9202919
1689,-0.650245368,-4.241702557,11.36731529,16.15869141,-152.3753815,-43.27542877
1690,-0.424200237,-4.05155468,11.57661819,44.15052795,-167.9022522,-47.26253891
1691,0.476887345,-3.066595316,13.00483799,61.75101852,-183.5179138,-50.46758652
1692,1.815872788,-2.457965374,13.50353718,56.58256912,-208.2380219,-47.62014771
1693,3.353096008,-2.835297585,13.93611908,57.11197662,-231.2234344,-45.40660477
1694,4.713913441,-3.220593214,12.65260601,56.45048904,-239.717514,-41.45656204
1695,5.471776485,-3.543793201,11.36485863,63.09172821,-241.1036835,-40.18093109
1696,6.75097084,-3.113546371,10.24042892,70.48709869,-231.6692047,-41.73051834
1697,7.665936947,-1.000804305,10.58230782,62.52109909,-218.3809509,-44.00448227
1698,8.691771507,-0.28314817,12.07623482,41.61594391,-207.5469055,-40.66112137
1699,9.355399132,-1.028735638,13.34152794,22.57790947,-201.6719971,-34.09623337
1700,9.815937042,-2.007045269,12.52116394,29.13661766,-192.5738983,-27.08676338
1701,11.90918159,-3.913023472,11.50274944,48.59721375,-166.2070618,-23.01989365
1702,12.45571995,-3.339489937,10.44427109,51.16311646,-108.3334503,-27.33315659
1703,10.54995823,-0.340220004,8.573101044,46.15169907,-64.62699127,-22.01496124
1704,9.84350872,0.560064673,5.890785217,18.03733253,-37.13695145,-11.51967239
1705,10.70088482,0.27941817,4.892199039,-15.77661037,6.639399052,-12.9472723
1706,9.492544174,0.293164968,3.144277334,-9.900845528,20.25178528,-5.625770092
1707,8.895352364,1.088696837,0.512019813,25.11875343,23.27642441,4.449603558
1708,6.841425896,-0.332413614,1.433561921,14.92338085,46.38290024,11.06822777
1709,5.512619495,-0.140580088,3.653441906,-26.51898384,70.50561523,1.362270594
1710,3.658204079,-0.668018878,6.43816328,-97.72281647,76.58573914,6.985954762
1711,-0.976936638,-1.260387897,3.32939744,-103.7440338,107.9111023,-1.477681279
1712,-1.145593047,-2.146059513,3.054317713,-67.22899628,59.38505173,7.102136135
1713,0.228916094,-2.4618752,5.603471756,-44.69367218,48.67065048,14.58912563
1714,2.261236906,-0.179612949,5.295839787,-31.07218742,43.84609604,5.524523258
1715,2.117582083,-0.387389511,7.139314175,-28.8602581,44.63336563,10.73984718
1716,0.722302496,0.808908165,7.442200661,-30.19441605,32.68940353,13.96851063
1717,1.197140813,0.64320302,7.572042465,-31.14188957,7.147434235,22.00162315
1718,0.443177849,-1.405949593,6.636772156,-17.64482689,-24.39636803,22.6206131
1719,0.889937043,-4.419642448,7.021812439,-4.165180683,-34.31393433,9.865753174
1720,2.991969347,-2.300473213,8.711415291,-4.730366707,-35.55563354,5.334272385
1721,3.964452744,-0.077706128,9.471560478,-21.64310837,-45.64277267,9.166966438
1722,2.997971773,-0.535434604,8.682709694,-25.33764648,-57.76224136,13.78650379
1723,2.692025423,-1.420936584,8.574292183,-19.31219673,-70.45697784,7.637814045
1724,4.351655006,-1.728976488,9.051729202,-21.76887894,-70.35070038,4.838478565
1725,6.220807076,-2.206990004,8.958151817,-29.45808792,-70.48201752,10.60945606
1726,6.448179722,-2.622273207,7.881470203,-22.37181282,-68.56059265,6.465923309
1727,7.18977356,-2.118838072,8.10661602,-20.04468918,-60.96065521,5.574948311
1728,7.745473862,-2.44804883,8.662303925,-24.7549324,-53.28580475,11.32368469
1729,8.152848244,-3.672785759,9.240685463,-22.49811745,-48.30900192,13.74015141
1730,9.217357635,-4.470497131,9.470911026,-7.805222034,-38.84654617,11.40597248
1731,10.52655792,-3.909579277,9.312348366,-0.800584435,-26.04435539,4.301445484
1732,11.22548771,-3.175178528,9.166927338,5.733694553,-11.1055975,5.351642609
1733,10.12079906,-2.9100914,9.642882347,6.383980274,13.9585495,12.62388229
1734,8.314595222,-2.512375355,9.849094391,11.78352833,35.91277313,13.19120979
1735,7.527173996,-2.205516577,10.52576256,-9.143496513,62.08853149,14.14633751
1736,9.777611732,-3.196089268,9.584284782,-23.97781754,92.1034317,14.95121765
1737,10.35056782,-3.464054346,10.06931782,-21.26527214,130.651001,13.57961941
1738,10.08542156,-2.695697308,9.681208611,-13.57175732,175.3867035,27.01844406
1739,9.995074272,-4.116017818,8.502942085,-7.016684055,216.749588,38.41420364
1740,8.545647621,-4.012684345,5.672540188,23.74337387,230.4611511,36.91968155
1741,8.372060776,-2.660857201,4.206363678,48.72175598,230.4448547,36.52026367
1742,7.709112167,-1.16065836,2.068289518,37.89666748,218.4438019,37.3227272
1743,6.992874622,-1.377993822,0.601536572,51.64711761,216.950943,42.03282928
1744,5.958568096,-1.010771513,0.89090395,45.50918198,227.7370148,48.85504913
1745,2.876807928,1.056158423,1.565573812,55.50172424,239.8148499,55.27171326
1746,-1.768070102,0.473591506,2.901316166,42.42053986,238.5832672,63.75767136
1747,-4.868928909,-0.589277387,5.35905695,4.92424202,221.2192078,62.62108231
1748,-5.556340694,-1.076362371,7.540895462,-45.04247284,202.8044586,59.88731766
1749,-5.611041069,-2.282039642,8.943491936,-69.69006348,173.208252,52.72337341
1750,-6.828519344,-4.357192993,7.067753315,-27.44370461,144.41185,53.37078857
1751,-5.866505146,-5.047679901,8.393601418,5.982743263,109.2698669,33.48102951
1752,-5.241887569,-3.710841894,8.919975281,41.77392197,93.38431549,20.88290596
1753,-5.686580658,-1.612001538,7.986052513,74.10604095,55.24253464,1.796516061
1754,-1.205999613,0.182888776,9.039465904,45.60709381,18.74263,-13.67731953
1755,-0.796012342,0.007848511,10.19054699,25.42580795,-1.238902092,6.025767326
1756,-6.136837959,-1.277490854,10.70381927,-7.014958858,-11.41369915,-2.43872118
1757,-5.24315691,-3.058988094,10.08963108,-29.34421158,-33.47183609,-20.34032059
1758,-2.071718693,-2.625965118,8.794435501,-29.23628616,-52.05572128,-20.69936752
1759,-1.31183815,-3.057599783,9.371101379,-19.47299576,-69.50540924,-20.69633293
1760,-2.083378792,-2.820208788,10.117033,-17.21951103,-83.33409119,-21.01281738
1761,-2.236188412,-2.170132875,11.13129139,-22.09870911,-91.24905396,-28.52383423
1762,-0.842680216,-1.980036259,12.07861328,-33.42592621,-95.16183472,-29.97958565
1763,0.129861623,-2.779584885,12.1198473,-36.93954849,-102.8912659,-31.35031891
1764,0.286734879,-4.251674652,11.38997555,-17.88763809,-109.3773499,-26.65406036
1765,0.199238747,-4.640559673,11.28333855,9.750946999,-118.53759,-24.35586929
1766,0.577710211,-4.267598152,12.06560135,14.39457226,-123.3871078,-34.67695236
1767,0.303416848,-5.376901627,12.45657349,10.54935265,-124.2677917,-39.04094696
1768,0.067528427,-3.146976471,12.24011612,23.72096634,-138.4926453,-43.42356491
1769,0.767859817,-1.208850503,12.62011051,32.65849686,-162.249054,-42.3351326
1770,1.345551014,-1.66011095,12.73975182,38.4585228,-188.8590393,-42.07636261
1771,1.622059941,-3.129990339,12.83180237,71.54006958,-226.0861816,-44.65115356
1772,2.898895741,-2.450621843,11.55604458,91.63307953,-247.027832,-35.10851669
1773,4.299921989,-0.747858584,11.72610855,77.87697601,-258.4533081,-25.27799797
1774,6.174882889,0.169242203,13.17153931,44.23208237,-251.1985474,-19.70610237
1775,7.768359184,-0.652984083,14.56859303,22.76033401,-261.5309753,-5.550724983
1776,8.930197716,-3.368151903,14.30264854,-6.959643841,-270.7855225,-8.166647911
1777,10.20521736,-2.975614309,12.47352791,-30.65990257,-258.3768921,-29.09505272
1778,9.996279716,0.040925935,11.00556087,-16.50879478,-234.5992432,-44.23826599
1779,11.65214825,-1.36455071,8.42650032,-30.51364899,-212.8540649,-48.85113144
1780,12.33516216,-2.324449778,5.026027679,0.640063941,-168.3467712,-34.15101624
1781,13.78649998,-2.873571873,5.577299595,17.68378448,-110.9206848,-24.50343895
1782,13.18802452,-2.269259214,7.278990746,0.290061951,-64.62898254,-16.68840599
1783,12.86635399,-2.221842051,8.206319809,-9.440929413,-31.17838669,-11.27498722
1784,12.42818832,-2.14530158,5.216388226,-4.841356277,-17.46145248,-5.833926678
1785,12.27272892,-1.215815544,1.981977105,12.85285282,3.801369667,-4.769331455
1786,11.5397234,-0.912714601,2.353077173,12.93298721,43.20933533,-1.388704896
1787,11.66295528,0.819618821,-0.24337557,-1.209003448,68.4445343,6.134375572
1788,12.51971245,-0.637727141,-2.126459122,-19.2045002,102.8514404,22.31981277
1789,8.149219513,-0.296192288,-1.154237747,-20.36589241,133.5519867,21.77358818
1790,3.403463125,-0.057910278,1.756647944,-49.74064636,160.2876892,8.663602829
1791,4.258760929,0.536596715,2.231548786,-110.1780853,143.3290558,17.91440392
1792,2.88869524,1.821382165,-1.982728481,-74.56153107,150.55867,32.85403824
1793,1.607204914,0.445362061,-0.400100201,-55.52922821,178.5501251,28.23627663
1794,0.779038072,-0.342195004,4.389980316,-58.61276245,170.3741913,31.15074158
1795,-0.606610537,-0.584334075,3.117986917,-34.26317978,135.0881348,32.67325592
1796,-0.594774485,-2.167339087,4.879310131,-32.56661224,114.4344864,30.727314
1797,-0.439167917,-1.694647908,4.531312943,-22.5835743,83.08410645,25.70019531
1798,-2.02957201,-1.483372092,3.802158117,10.82536983,45.94314194,22.69820023
1799,-1.535034537,-1.97471118,5.235475063,17.31267357,32.2412262,18.97685432
1800,0.82846427,-2.332299709,8.895659447,-2.270914793,31.56797791,13.94193459
1801,0.373825878,-2.042325735,9.135622025,2.964611292,16.07998848,16.10056686
1802,-1.614210963,-2.791444778,7.703353882,25.33026886,-5.610843658,13.43844891
1803,-0.883333683,-2.729227543,7.51866436,31.39834213,-24.42595482,-0.915863931
1804,1.040332437,-1.629583597,8.325927734,15.20393276,-42.13605881,-9.242180824
1805,1.176394224,-0.949781299,8.990608215,4.070962906,-64.26600647,-10.25734806
1806,2.025701523,-0.797074616,9.883336067,1.399716258,-87.6709671,-19.55586433
1807,4.79375267,-2.61295414,9.94588089,2.241732597,-99.87640381,-24.27113342
1808,6.553681374,-4.532618046,10.39590359,9.717785835,-95.66414642,-18.37955856
1809,7.10964489,-3.767207384,10.41577625,17.32315254,-86.02341461,-11.79094505
1810,7.824851036,-3.830588341,10.59128284,22.80190277,-76.86225891,-12.52397346
1811,8.591227531,-3.399394512,11.62683201,25.55801582,-66.78221893,-12.57594776
1812,8.656783104,-3.331013203,12.06502247,27.73096466,-63.08233643,-7.334544182
1813,8.953669548,-3.011983871,11.79700756,26.68481827,-51.68084335,-9.393686295
1814,11.6220274,-2.636658669,9.693576813,38.20182419,-47.87197495,-12.25223446
1815,8.743696213,-4.177804947,9.013792038,86.90589142,-11.52021885,-12.49725437
1816,6.012168884,-5.999875546,10.08369255,51.14387512,38.07982635,-34.24882889
1817,9.617880821,-3.255897522,9.919846535,42.20751953,41.18865967,-23.35188103
1818,10.58242607,0.714813769,9.970510483,61.75687027,52.24487686,-10.09856796
1819,10.08230782,0.231581777,11.25844288,44.99624634,77.17073059,-6.530610085
1820,10.63771152,0.006081086,10.64510155,12.99640274,110.4564285,9.26868248
1821,11.81528187,-1.469237685,10.23190403,-28.79014969,160.1716766,16.25594902
1822,12.21116734,-1.56720233,9.219266891,-34.65139771,183.6014862,26.54457092
1823,10.45086575,0.462476581,5.654079437,4.376650333,184.3671417,33.21148682
1824,8.082755089,1.382932663,3.064073563,29.10315895,198.1620178,33.77929688
1825,6.706466675,0.116090178,2.290946722,15.55700207,214.3993073,36.69935226
1826,5.545242786,0.422217667,2.44834733,-2.755117655,234.5671387,45.83339691
1827,1.965534687,1.158383727,3.53212738,-15.95057487,233.8616333,46.99962997
1828,-0.899543047,1.40116632,4.844148159,-24.82353592,239.8992157,50.68766022
1829,-2.070550203,0.916702449,4.948741913,-40.29056549,240.2714691,55.09798431
1830,-3.292420149,-0.315468192,5.879387856,-49.66065598,238.957016,59.10000229
1831,-4.99720335,-0.516269505,8.263253212,-86.37446594,219.1814117,57.03986359
1832,-5.055438995,-1.06454134,10.93565083,-140.8571472,197.809433,53.3552475
1833,-4.804364204,-3.474732161,11.37800694,-166.0175171,164.8683929,33.86739349
1834,-7.979046345,-3.406118631,8.372712135,-77.68850708,117.3838501,29.01190186
1835,-4.351263523,-4.824675083,9.203485489,-41.43203354,109.4619751,7.001769543
1836,0.050729342,-3.275135279,7.795525551,1.201899886,62.17661285,15.22322655
1837,-4.40239048,-3.181264877,9.118267059,18.58462143,33.75488281,1.732554555
1838,-5.380264759,-2.999658585,9.389551163,2.066996813,2.554432154,-6.657311916
1839,-3.654538393,-3.360377789,9.046262741,4.174530983,-27.1062336,-11.3085928
1840,-3.515117884,-3.241774797,9.598818779,6.106080055,-59.36720657,-16.10142517
1841,-2.924030781,-3.065162182,9.589482307,8.647894859,-87.88756561,-22.56352806
1842,-2.208599567,-3.189272881,10.36928654,7.926156521,-113.6520462,-27.77927017
1843,-2.048177004,-3.519360065,10.79338074,18.14775085,-130.2711182,-33.63385773
1844,-1.43560648,-4.57470417,11.59455013,30.9817009,-146.7530365,-41.98565674
1845,-0.560974479,-3.299392223,11.61517906,47.21783066,-161.822052,-50.32307816
1846,-0.052330256,-2.353707075,11.69390774,55.82715988,-177.7893219,-52.32448959
1847,1.173746347,-2.018075466,12.06890106,63.17816544,-197.9033661,-47.25875092
1848,2.613687515,-3.029887915,12.64674473,68.18502808,-208.4655457,-37.79338455
1849,4.084676743,-2.739928722,12.82979393,79.56555939,-220.826767,-34.708004
1850,4.835710049,-1.838746309,12.0203228,82.01230621,-230.1447601,-42.46432877
1851,6.266963959,-2.552675724,12.25699615,72.06734467,-218.952713,-43.210186
1852,6.790939331,-1.451937437,11.037323,72.79419708,-203.4938812,-42.59259796
1853,7.479785919,0.161960632,10.95038891,77.46817017,-193.6404877,-38.28410721
1854,9.044192314,0.400580972,10.48389053,63.60693741,-189.2334747,-28.25006676
1855,9.891648293,0.478214025,10.5554018,61.85915375,-183.5102234,-13.50626755
1856,10.39320374,-1.135113716,12.00368786,34.94430923,-142.4747772,-5.832736492
1857,11.3909483,-2.423850775,13.47546959,16.76254082,-89.77800751,-8.812746048
1858,10.51668835,-1.939148307,14.1979084,22.49027061,-64.42843628,-9.871498108
1859,8.746273041,0.378444165,10.68149471,20.54834938,-66.72695923,1.549876928
1860,8.034011841,1.099242926,5.795767784,-18.11572456,-40.85484695,8.727443695
1861,8.593536377,0.259782016,3.221315622,-46.00407028,-2.002595663,8.338041306
1862,9.088983536,-1.02759254,1.639617562,-34.6364975,27.01810265,11.46510315
1863,7.855136395,0.378231257,0.977383792,-7.883840561,24.34007454,10.00678539
1864,9.772601128,-0.087679178,1.547774196,-0.045687322,60.32807159,22.15876579
1865,3.802429914,-1.417541504,5.097999573,-81.05458069,96.91899109,20.11339188
1866,1.129256248,-0.525752127,6.098522186,-133.9308777,99.09076691,10.49141598
1867,-1.474569798,0.071334302,1.69352901,-90.22664642,61.71827316,16.8040657
1868,-2.297265291,-1.706984282,4.637462139,-65.18926239,36.72080231,12.51551056
1869,0.89379847,-2.589788914,5.905188084,-55.15587616,38.05389786,17.7730999
1870,1.391925454,-2.412871122,6.193675518,-37.55524445,24.25448036,10.21823502
1871,1.077314496,-2.084128857,6.42152071,-17.98216629,18.02638245,4.93758297
1872,1.117567062,-2.914916515,8.354381561,0.197409943,9.400362968,2.049375296
1873,1.811458707,-1.346341491,9.030779839,1.385993481,-13.1723175,2.773523808
1874,1.487636924,0.138013691,7.485749245,22.35456657,-36.58030319,0.247990161
1875,-0.118420362,-1.871689081,7.731902599,25.3110733,-47.65952301,-5.491061687
1876,3.023332357,-2.231473684,9.117061615,12.66800022,-50.02460861,-5.654453278
1877,4.808444977,-1.309056759,10.02596474,-5.463027477,-53.40377045,3.103375673
1878,3.280942678,-2.638385057,9.132478714,-9.045882225,-58.31248856,2.349968195
1879,3.047603607,-2.919935703,9.14287281,0.557955623,-65.527771,-9.174271584
1880,4.264570236,-1.836283326,9.595202446,8.813081741,-68.88233948,-14.03156376
1881,5.293337345,-2.255624771,9.538422585,14.36762238,-73.12325287,-11.55673313
1882,5.889530659,-2.777379513,8.848155022,25.89585495,-67.57182312,-11.95324993
1883,6.619679928,-2.853738546,8.316198349,36.59281921,-59.68043137,-14.22776413
1884,7.571009636,-2.450222492,8.278038025,43.06573105,-50.05980682,-14.74453449
1885,7.509869576,-1.910465598,8.836717606,25.83799553,-40.56900406,-15.58220291
1886,7.892138958,-1.550110459,9.431159019,15.32744122,-36.64631653,-11.36497307
1887,8.172346115,-1.015158176,9.967792511,11.51661396,-37.54838181,-4.031371117
1888,8.987000465,-1.355699778,10.62520695,6.971601009,-36.61817932,-7.63989687
1889,9.190572739,-1.083630443,10.54466152,1.344087362,-18.64837074,-18.52277756
1890,9.553109169,-1.051335335,10.40329647,14.64791584,-9.587044716,-20.6510849
1891,9.186066628,-2.890893698,11.32949543,21.87146378,-0.487788528,-14.92599583
1892,9.425848961,-2.858430386,10.99851799,-1.200500846,18.44056702,-4.955724716
1893,9.63506794,-1.016524196,9.04821682,-24.00128365,63.09097672,3.171415091
1894,9.842342377,0.402277231,7.925282955,-37.19811249,99.64474487,10.83066463
1895,9.783408165,-1.84498632,8.446087837,-38.8848114,136.3779297,22.25366592
1896,10.60035324,-4.001749039,9.122889519,-41.58253479,168.0079498,30.82668686
1897,9.905195236,-2.969342709,6.815489292,8.442346573,196.0469513,31.81617546
1898,10.02545643,-1.282609224,5.590045452,48.07905197,201.4335175,25.26935196
1899,8.161298752,-0.037080865,2.955796957,46.08251953,185.9573517,25.99637604
1900,7.622298717,1.106252074,1.310608506,42.45512772,184.3401947,28.23896408
1901,7.18103981,1.351049542,1.924240232,23.18644333,199.0800476,27.83466721
1902,4.424302578,2.29942131,1.962744236,19.98099899,220.839859,34.41585922
1903,0.557584643,1.138637543,3.309398174,6.46830368,235.5691223,42.84280396
1904,-2.490894318,0.061828922,3.245604753,-33.58445358,245.1726685,47.04479218
1905,-3.753167629,-1.378511071,5.709330082,-74.8024826,231.5332031,49.83182144
1906,-4.651990891,-1.454515219,7.831947803,-99.06230927,208.1100616,52.96926498
1907,-5.526175499,-1.042380929,8.527863503,-83.04095459,188.8845978,51.78171539
1908,-4.310980797,-2.386940479,11.52152252,-54.2687149,173.4397736,44.93848038
1909,-4.237751007,-2.838431835,9.081327438,-46.98574448,147.1442719,41.05652618
1910,-3.985704422,-2.017458916,8.115019798,-18.16107178,108.7223892,29.04127121
1911,-3.75242877,-0.869677603,9.321885109,1.161416173,78.62556458,22.24865913
1912,-4.894054413,-1.023353815,9.075396538,-8.819129944,58.93268967,11.77522564
1913,-4.172537804,-2.864579439,9.871985435,-24.09670258,38.93431854,3.768974781
1914,-3.079077005,-3.564584732,10.19486523,-16.39018059,17.12029076,1.453920484
1915,-3.55312252,-3.858882666,9.491790771,-8.207809448,-11.69345665,-7.907717228
1916,-4.289028168,-3.306373835,9.320681572,-1.779624462,-36.16631317,-13.26557255
1917,-3.360761404,-3.317694187,8.858576775,-1.117504001,-60.83015823,-15.27478981
1918,-3.3979671,-2.625585079,10.05387592,-6.794872761,-72.2890625,-21.17660332
1919,-2.740411997,-1.97825563,10.69693851,-16.89152336,-78.95110321,-31.17174721
1920,-1.165577888,-2.52224803,10.37857151,-16.95782471,-81.25027466,-34.66646194
1921,-0.182670251,-2.596275568,11.17554855,-20.80501366,-88.03689575,-33.78951645
1922,-0.76333797,-2.731671333,11.61791039,-21.95872307,-98.35887146,-34.88946915
1923,-1.005212069,-3.07153368,11.44688892,-27.2112751,-108.380661,-33.13555908
1924,-0.195434555,-3.786905289,11.04733276,-19.23980713,-120.9428177,-34.85029221
1925,0.178049922,-3.977322102,11.06502247,-7.757414818,-135.207016,-37.10978699
1926,0.108976483,-5.20151186,12.09429073,6.098903656,-149.8157959,-36.95670319
1927,0.037760794,-6.218016148,13.67890263,28.7645874,-170.173233,-44.85150528
1928,0.720659375,-5.954750061,13.75634766,52.66631699,-207.4803009,-48.9803772
1929,1.609842539,-4.381295204,13.18450928,58.68390656,-235.1600037,-49.47340393
1930,2.264611006,-1.545231819,12.25351143,52.29513931,-258.8622131,-45.4590416
1931,4.173153877,0.900765657,10.66256618,62.06702805,-276.4417419,-32.073246
1932,7.690816879,-0.944251895,10.95968723,70.9486618,-300.5524597,-5.353093147
1933,9.633128166,-3.221032619,12.50392914,27.836092,-288.5114441,1.440071702
1934,9.739664078,-2.448191643,12.2241106,-16.02095413,-258.7867737,-20.51167107
1935,10.59985924,-2.221731186,11.79891682,-38.39821243,-226.7346802,-43.72649765
1936,11.21660137,-1.646163225,9.448286057,-42.39311981,-194.2183533,-54.70570755
1937,10.29321098,-2.528821468,8.33073616,-45.07540131,-166.6347504,-44.95485687
1938,10.88806915,-3.51971221,7.805665493,0.090951025,-141.8103943,-30.93677521
1939,12.25881195,-4.62097311,7.330998898,2.852111578,-105.8080215,-24.38575935
1940,12.73464584,-4.427958965,7.075660229,-8.746973038,-58.0194397,-20.80803108
1941,11.45529175,-3.102481842,6.401320934,-5.111982346,-16.37715721,-12.81804848
1942,11.8992548,-1.924354196,4.863989353,10.94583988,5.041586399,-0.749888897
1943,11.89311886,-1.91383028,2.479078531,23.34746552,32.32465363,11.07898617
1944,12.11727047,-1.367115259,0.123000033,31.92901421,64.60325623,8.398650169
1945,9.309371948,-0.226256669,-0.452508688,43.46212006,101.4463806,14.74448681
1946,6.385375977,-0.171963736,-0.324953496,50.53982925,115.583252,13.29289341
1947,6.067623138,-0.77184546,3.615597725,17.35128021,123.2522812,10.86765575
1948,4.510268688,-0.12977241,2.480797529,-52.07495499,101.5610275,27.64838982
1949,1.139111519,3.217395544,-2.623376608,-39.57963181,151.4036102,30.54233932
1950,-1.315399408,0.900546432,-1.397057772,-18.83682823,137.0608826,20.89522552
1951,-0.114601225,-2.266527891,2.959909201,-14.37153912,112.4605103,35.89894867
1952,0.013345942,-2.141188145,5.235881805,-4.186312199,110.2947845,20.39459801
1953,2.016694784,-0.516925633,5.475106716,19.72940063,100.7240906,16.69482231
1954,0.199450731,0.476418018,5.538107395,27.44322968,72.62713623,12.45502949
1955,-2.988869429,0.772693634,5.419318676,18.19779968,42.15691376,12.41016769
1956,-2.697719574,-0.670661092,6.175235271,5.313818932,11.93397522,4.69737196
1957,0.782809079,-2.412274361,8.370549202,-3.380901814,4.613686085,-0.377787352
1958,1.888004541,-3.157888412,8.744227409,-6.012568951,-3.171979666,0.289314687
1959,0.713533223,-2.956957817,8.683141708,7.49520731,-23.69236183,-0.557858646
1960,0.439242601,-1.755236983,8.728693008,16.86619949,-47.03118896,-9.496264458
1961,1.402368903,-1.26970613,9.134055138,13.81216335,-65.81677246,-10.4928503
1962,3.088853598,-1.887486815,9.791138649,4.892187119,-73.82064819,-13.61563015
1963,5.392690182,-1.70850718,10.77857113,-0.441399723,-75.69390869,-23.17679405
1964,6.329169273,-2.645657778,10.05942726,9.067106247,-75.52797699,-20.39022064
1965,6.729131699,-2.290930748,9.934238434,19.94721985,-73.94148254,-13.25654602
1966,7.3368783,-1.783518076,10.16268063,17.77640152,-67.58771515,-9.640748978
1967,7.880587101,-2.755430222,10.3601923,10.42372131,-61.92427826,-14.19217873
1968,9.123372078,-2.412137508,10.69567966,21.90920639,-44.41293335,-16.47940826
1969,8.644042015,-2.140110493,11.29549789,11.15118885,-39.2356987,-5.182427406
1970,11.47334194,-2.273360968,11.22523403,18.21256638,-32.36976242,-2.502167702
1971,8.28882885,-3.187111855,12.09214878,49.18447876,-16.31807137,-7.401168346
1972,7.901340008,-2.083782673,11.67341423,15.54746914,8.144432068,-22.80856895
1973,9.911805153,-1.304675221,11.58511639,8.262836456,14.1867485,-20.50725365
1974,9.978055,-1.40095377,9.809879303,-13.24419117,46.02723312,-6.252315998
1975,9.509658813,-1.417791605,8.607350349,-2.846117973,92.65654755,5.100558758
1976,9.849704742,-2.222993374,10.04733181,1.260653138,121.9184647,12.40893745
1977,10.47295856,-3.328012705,10.20085335,3.970588684,139.4474792,25.94396019
1978,10.72608089,-2.66592598,8.820236206,12.39831257,153.4082947,30.56289101
1979,10.08678055,-1.134054661,7.238637447,21.21214104,175.1499481,32.73792267
1980,9.371095657,-0.288523078,4.526386261,17.63547134,179.0233917,31.97533035
1981,9.218182564,0.469029307,2.780700684,16.89252281,199.346344,32.83425522
1982,8.567331314,0.76481837,2.394360781,8.384468079,221.1734924,31.09194756
1983,5.561666012,2.043010473,2.27594161,16.60766411,234.3520966,31.95356941
1984,1.547034979,1.384168148,3.678793669,-3.102886677,237.2679596,38.43144608
1985,-0.355380774,0.771326542,3.942582607,-37.02355576,254.220871,51.12696838
1986,-3.591269016,-0.710389197,4.175102711,-46.62572861,263.7631836,57.528759
1987,-5.642197132,-1.669341922,6.040478706,-68.07061005,243.622879,55.60258484
1988,-5.219560623,-1.71113193,7.696453571,-109.2986298,216.4851227,60.09059143
1989,-5.219635487,-1.784039259,6.22825098,-79.01324463,187.9864502,64.3609848
1990,-6.166436672,-2.896826267,8.92678833,-39.74235153,161.1220856,57.10307693
1991,-5.683381081,-2.748863459,10.50324821,-29.09632683,140.432373,43.54391479
1992,-7.644901276,-2.449323654,9.474709511,-9.055040359,105.7330475,17.7892704
1993,-1.939951658,-2.458895683,12.00384045,4.958532333,69.8637619,6.68503809
1994,-4.733469963,-1.422258139,8.656886101,20.47792625,33.90554428,13.38516426
1995,-6.621961117,-2.277406216,9.483541489,14.24496174,0.753871918,2.954580784
1996,-4.631282806,-2.081543684,9.080098152,11.41501904,-28.32562828,-9.682319641
1997,-3.927507877,-1.697695017,8.142072678,16.29172707,-54.46554565,-12.25620079
1998,-3.827753782,-1.393516421,9.681994438,2.523465633,-74.40513611,-16.17821312
1999,-2.204278231,-2.18948555,10.13525772,-11.72089577,-87.7250061,-18.70880508
2000,-1.619062066,-3.510267496,11.07718086,-14.13536167,-95.24811554,-29.10430336
2001,-1.453813076,-3.341652155,11.11927986,-7.080600739,-110.6964569,-34.26443863
2002,-1.435204029,-2.590692043,11.50535011,2.930168867,-130.9842072,-36.98175049
2003,-1.103937984,-2.401892424,10.70182896,9.400923729,-157.3034363,-38.49953079
2004,-0.546569228,-3.332082272,10.17733479,12.15507984,-174.924118,-42.40858841
2005,0.343342304,-3.991912127,10.78477764,27.79240036,-186.5741577,-42.32947159
2006,1.017224193,-3.058722258,11.81173611,45.23403549,-194.3182831,-38.32302475
2007,2.443156719,-2.784682035,12.62285805,57.37045288,-205.2381592,-33.12535858
2008,4.455855846,-2.076412201,13.48390675,61.88889694,-216.3126068,-27.40990639
2009,4.683870792,-0.709971189,13.64724064,55.97988892,-227.3452606,-33.53247833
2010,5.38920927,-1.338486433,12.76946735,50.49359131,-239.3173523,-37.42944336
2011,7.378908634,-1.723483443,11.24196529,49.24559021,-236.3079071,-33.39574814
2012,9.120623589,-1.802927971,10.82353306,36.06207275,-223.3787231,-29.36834526
2013,10.5037632,-1.628480554,12.25197887,13.48597145,-208.6846771,-24.9683075
2014,10.5643692,-1.900571942,13.04687214,-5.202848911,-193.1893616,-19.41814995
2015,10.79773235,-3.313657522,13.45907879,-0.283682346,-185.6048126,-8.562906265
2016,11.46268082,-3.774754524,11.95901871,-10.81382179,-150.5420227,-8.703486443
2017,10.87798214,-1.824283838,9.423840523,-6.245501995,-107.0633926,-9.514379501
2018,10.20797729,-0.133116275,6.597193718,-8.904232979,-80.11589813,-2.943753958
2019,9.672460556,0.069003545,5.835368633,-14.74669075,-46.07116699,-0.969724119
2020,9.70405674,-0.21858114,4.210019588,-23.78342438,-13.15679073,2.403111219
2021,9.247503281,-1.641332746,3.587238789,-12.83256912,22.18848038,5.071447849
2022,7.213039398,-2.440848351,3.252639055,12.0534935,39.81053162,4.708405018
2023,5.688639641,-0.320013791,3.235969782,33.39851379,63.1596756,-2.074544191
2024,2.989797831,-0.675592899,6.259215355,-26.85975838,86.57361603,5.882966042
2025,1.224753141,-0.27019769,7.369009018,-106.6748428,103.4753036,4.9243927
2026,0.132413521,0.170742705,2.071870565,-96.8487854,69.45330048,3.261876822
2027,-0.085581854,-1.608832955,4.289252281,-49.93097305,54.17146301,16.96602821
2028,1.981063843,-2.083529949,4.875498772,-23.31684494,49.3403244,13.05824947
2029,2.354152203,-2.218868017,5.953186035,-2.582115412,29.39905357,15.55527306
2030,1.325043321,-1.505120873,6.656002045,0.75395143,31.41398048,13.59150028
2031,1.323316216,-0.680590749,7.606528759,-4.208999157,19.83506966,6.852087021
2032,0.133536816,-0.25568831,7.461961746,-5.635447979,-1.885632992,-0.320350856
2033,0.812215626,-0.752199531,7.053603649,-1.490686893,-19.88978577,-0.581114531
2034,3.084342241,-2.623984814,7.043386936,6.521831989,-32.25829315,3.515337229
2035,3.326253891,-2.881546259,8.16254425,6.987733841,-35.65276337,6.959098816
2036,2.938854456,-1.973459244,8.37186718,2.793542862,-41.03699112,1.970742941
2037,3.348386526,-1.92519021,8.310472488,5.576926231,-46.24991989,-4.630702972
2038,3.649795771,-2.109150171,8.769851685,8.750391006,-54.15003586,-6.399062634
2039,4.338533878,-2.004568815,9.069643021,16.07432365,-62.85688019,-4.302965641
2040,5.204796791,-1.740642309,8.916633606,15.94797421,-64.17268372,-1.93652916
2041,6.085373402,-1.384087324,8.350149155,17.92884445,-57.21220016,-2.44067812
2042,6.975884914,-1.173899889,8.504602432,16.85926247,-54.04943848,3.334849596
2043,6.723872662,-0.499888152,9.311289787,7.438900948,-53.22373199,4.650955677
2044,7.103300571,-0.623991072,9.980760574,-11.35254765,-55.40659332,4.921990395
2045,8.911275864,-1.612801433,10.66976738,-26.74741173,-46.90006256,-0.517445922
2046,11.14801407,-2.56884551,11.56952572,-17.20797729,-30.63588142,-10.51524734
2047,11.14609146,-3.791800022,11.487257,-7.185610294,-6.374723911,-11.91666317
2048,10.70818138,-3.662831545,10.11699867,-1.651118279,13.92559052,-11.60336685
2049,8.868680954,-3.167048693,9.270739555,6.623400688,37.21309662,2.625519514
2050,8.058411598,-2.593925238,8.924212456,1.680590987,66.29152679,7.429451942
2051,9.81675148,-2.313187599,9.410528183,-3.218200684,90.18675232,6.322530746
2052,10.57525444,-1.851887226,9.621564865,-14.21699238,125.8469849,23.17857552
2053,10.52439022,-0.882534444,7.562346458,-5.985320568,166.6770172,38.96596146
2054,11.05903816,-1.712718844,5.289570808,-7.569733143,201.5374298,40.82099533
2055,10.21843529,-1.134082794,3.784870148,11.23628807,222.0773926,39.75727463
2056,8.369802475,-0.37788412,2.359294891,21.49549103,232.9648285,38.58718491
2057,7.569664955,-0.478140622,1.23319459,9.937297821,239.0162201,40.29036331
2058,6.449485302,-0.595423639,0.564510584,19.32522964,252.1777954,41.67678452
2059,3.738203287,0.509016812,0.315499008,31.5922718,257.4973145,42.43260193
2060,-0.054492384,0.983597398,1.298313737,33.37374115,256.1220398,48.31825638
2061,-3.999181509,0.451234788,3.200581551,6.184844494,241.2986145,49.71481323
2062,-5.109681129,-1.745515347,5.420695782,-33.81278229,224.1628571,51.78000259
2063,-6.439627647,-2.998687506,8.061816216,-45.75647354,200.7410736,53.1815567
2064,-6.220056057,-3.821881771,10.99130058,-42.6944809,173.7139282,39.38242722
2065,-6.492781162,-3.761077881,12.2939291,-36.90556335,148.5552063,32.38050842
2066,-5.124027729,-3.572244644,12.66636658,-31.14113426,124.1173096,23.15403557
2067,-6.043138981,-2.469551563,10.02651691,-21.34190559,96.03472137,19.64604568
2068,-5.00245285,-2.049614191,10.35781574,16.04565811,49.65114975,10.83068085
2069,-4.713813782,-1.045897603,9.011657715,32.01051331,21.47681618,3.75995779
2070,-4.088114738,-2.056813002,9.297744751,-3.658699751,-13.09961033,1.060475349
2071,-2.723790169,-3.965939045,10.32913685,-19.34279633,-33.65665817,1.792501688
2072,-3.272734642,-3.417455435,8.874925613,1.848293185,-50.3320694,-3.155622005
2073,-4.346728325,-2.631545305,9.043320656,0.63963908,-74.50855255,-17.60062027
2074,-1.357633114,-2.360887527,8.831093788,-0.277092695,-89.26582336,-18.63160133
2075,-0.599300504,-3.133593559,9.441142082,-5.054087639,-93.16371918,-12.86373329
2076,-1.003503799,-3.407513618,9.858698845,-5.679553986,-94.18605042,-10.90067768
2077,-0.823502362,-2.438549519,11.23650551,-9.614411354,-93.84942627,-18.11805344
2078,-0.79723084,-1.000777364,12.06018639,-16.68227005,-102.2218552,-27.23450089
2079,-0.712667108,-1.164317608,11.87933922,-15.32784271,-120.1486282,-36.10100555
2080,-0.091935083,-2.459542036,11.41726875,-6.060349464,-138.5555725,-38.35267258
2081,0.795491576,-3.574760437,10.66692924,6.541614532,-152.3847198,-32.03740311
2082,0.838372707,-4.922062397,11.11615849,15.89339066,-155.5256348,-34.56824875
2083,0.553019643,-3.779150724,12.40980625,21.00074387,-162.955368,-37.80428696
2084,0.97306788,-3.834265709,13.49353027,17.83963776,-168.9985199,-36.44955826
2085,1.392725468,-4.746451378,12.64146709,31.39710617,-201.4542389,-34.62975311
2086,3.528902769,-4.036444187,11.81713772,52.22310638,-211.2831879,-33.33308792
2087,4.979241371,-1.674487829,10.0538187,53.31922531,-223.3325043,-32.140625
2088,7.71070528,-0.211826012,10.0242548,37.74847412,-224.3638306,-22.98854256
2089,9.549985886,-2.622823,11.23568153,10.64120483,-220.107666,-21.4589653
2090,9.520874023,-3.598085403,11.76527214,4.656736851,-199.3054199,-23.6281662
2091,7.806384563,-1.476168871,12.22539711,-9.759243965,-187.049469,-39.420784
2092,8.351576805,-0.536472797,11.58492756,-11.10377693,-193.4536438,-47.21443176
2093,9.803328514,-2.300164938,10.99593163,-25.36408997,-198.8594513,-38.44513702
2094,10.38209915,-2.812330246,9.167551041,-4.64672184,-195.536911,-24.55051422
2095,11.00872707,-4.001327515,10.24046898,-2.949272633,-154.7872162,-16.00917625
2096,11.56869793,-2.443725348,9.138335228,-17.31480598,-111.7758408,-18.79072952
2097,12.43276787,-2.350521803,8.114406586,-22.84421921,-69.81918335,-15.71622944
2098,11.07772827,-2.602370739,6.309177399,-27.70275879,-26.80057335,-8.776918411
2099,10.33492184,-2.142594099,5.367017746,-17.30495834,-0.574967384,-7.989096642
2100,10.32239151,-1.489528179,3.398547173,-7.831305504,19.25244141,3.335533857
2101,10.28041553,-1.584403276,1.797796607,-0.729022801,27.65184402,9.237630844
2102,8.659612656,-0.663378298,-0.662052751,-0.406423092,70.6894989,4.109809399
2103,8.381474495,0.042949677,0.400159419,21.02664375,94.65280914,11.95539856
2104,7.750043869,-1.142336607,2.828956366,-25.23357582,123.6177216,13.11876106
2105,2.853154659,-0.876583815,4.749791622,-99.58366394,149.6845093,20.92873001
2106,1.410185933,1.91170013,-5.750468254,-54.90909195,116.3946381,30.44487953
2107,-1.095504284,-0.707309425,-0.763339281,27.15182686,131.0496521,34.61773682
2108,-0.898152709,-1.248322487,3.618839025,-17.94805527,118.8010178,31.26732826
2109,1.897524357,-2.065975904,6.394717216,-34.00061417,105.0007706,18.83455467
2110,2.25620985,-1.994307399,6.095110893,-1.108400583,84.83600616,22.96036148
2111,0.318409085,-0.680570185,6.819825172,13.13515186,63.44225311,27.56155205
2112,-2.192444324,0.78374505,5.143608093,18.72515678,34.36582184,24.69002724
2113,-2.609198809,-1.124016881,5.819100857,6.466416359,11.19753647,16.05722046
2114,1.450772285,-3.42748189,7.01377821,2.477895975,3.743279219,12.72252178
2115,2.621246815,-3.706902742,8.44139576,0.14642787,-2.287567377,12.01115799
2116,0.942053616,-2.20004797,9.211155891,-0.120924152,-20.97114372,2.423247099
2117,0.546224475,-1.340858817,8.747174263,7.10352087,-52.01172638,-5.899347782
2118,1.774922371,-1.70594275,8.687960625,13.49638748,-71.46157837,-8.918203354
2119,4.079964161,-2.532037735,10.16180134,3.593033075,-76.71903992,-14.28500843
2120,7.025984764,-2.482312441,11.04854965,-0.356369704,-74.62284088,-18.66469574
2121,7.465911388,-2.518079519,10.66127968,10.001091,-71.29869843,-14.92049503
2122,6.721146584,-2.457431078,10.46772003,23.31245995,-67.12506866,-12.55667591
2123,7.532896996,-3.20401454,10.9413662,22.21575737,-66.95933533,-10.43161106
2124,8.535896301,-3.074443579,10.42629433,20.62439346,-58.90933609,-4.354104519
2125,9.846968651,-1.989962935,11.04501629,23.72815514,-43.44853973,5.647290707
2126,9.827168465,-2.572754622,10.67808342,33.71128464,-33.74990082,2.732832909
2127,7.774282455,-3.46211338,12.86647034,24.0245018,3.454534292,-11.24909401
2128,10.0114212,-2.477164507,11.16051865,22.62796974,-2.196692467,-16.98682785
2129,10.04576683,-1.671203852,10.07183743,36.35536575,0.568982601,-10.43811131
2130,9.626105309,-1.367840886,10.65596008,12.4280777,22.22026825,-1.107066512
2131,10.4692564,-1.087963343,8.408740997,-4.520697594,79.50730133,4.811312675
2132,10.38371563,-2.764001846,6.397586823,3.711107731,109.9534302,12.83856201
2133,9.56787014,-3.441387892,7.261928082,-16.59827042,130.7335358,18.89924622
2134,10.73672676,-2.592444181,7.063971519,-9.376888275,151.037323,20.08123207
2135,10.88402367,-2.234638214,6.374031544,16.08455849,172.4532471,13.82293415
2136,8.636993408,-1.131123424,3.960345268,46.49093246,165.367691,13.28168678
2137,7.025406361,-1.741534472,3.633284092,56.41836929,174.4897766,16.92542458
2138,5.40273571,-0.468077391,2.901071548,34.75405502,189.0305786,15.69826126
2139,3.383892298,2.361586094,3.187129974,39.85868454,200.539093,15.44459343
2140,0.889627934,2.147295713,4.915007114,27.65942764,213.7947693,25.00008202
2141,-0.267442942,-0.746553421,5.646122456,-16.11961365,215.2837067,31.08577538
2142,-1.260449409,-2.75295949,6.963973522,-52.50125504,211.6835938,43.42389297
2143,-1.926342726,-3.19562602,7.562498569,-57.08094025,203.242218,49.92829514
2144,-3.744178295,-3.428076982,9.600003242,-61.3849678,192.559494,47.26223373
2145,-4.214012146,-2.786906719,9.683569908,-48.86749268,160.4494324,45.3117981
2146,-3.164163351,-2.617163897,11.17321873,-17.7212944,143.7602844,38.98156738
2147,-3.59003973,-2.633574009,10.20248032,-19.1834774,125.265358,28.2135849
2148,-4.908293724,-2.46405673,9.641160965,-0.686933398,102.4424591,20.7342205
2149,-0.93304801,-2.467450142,10.23181343,-16.21923065,69.02215576,23.69021225
2150,-2.905263186,-2.282708406,9.431738853,8.742810249,38.59294128,26.41363525
2151,-4.413516998,-3.151681423,10.53398418,5.118107796,17.35206604,17.86433411
2152,-3.63778162,-1.45713377,9.928203583,6.300366879,2.233888865,7.35073185
2153,-2.177348375,-0.826439142,9.842940331,0.654686987,-17.49661446,-5.807322025
2154,-2.133002281,-1.914249539,9.920843124,0.744950831,-43.04689407,-15.55646801
2155,-1.205630302,-2.163408518,10.2533741,-4.084239006,-60.082901,-18.03466034
2156,-0.994588912,-2.826395988,10.38302517,-8.242040634,-75.10900879,-18.45908928
2157,-1.724749446,-3.489070892,10.48424721,-5.82743597,-87.06970215,-24.64941216
2158,-1.662106037,-3.366683006,10.74381542,0.101430088,-97.47428894,-33.53063202
2159,-0.78963834,-2.38192153,10.63473415,13.29166603,-117.5534439,-44.6544342
2160,-0.132185608,-1.893366218,10.27634907,29.08726501,-140.6827087,-51.95808792
2161,0.525794685,-2.588367224,10.40710449,43.93192291,-164.6594086,-48.15729141
2162,0.791455448,-2.837310314,11.4038868,53.1727829,-184.4531097,-39.32920074
2163,2.264137268,-2.171252012,12.96759033,52.7686882,-209.0017395,-28.35440826
2164,5.020394802,-1.347057104,12.90833187,47.74730682,-227.0216675,-23.33041954
2165,6.593668938,-1.12856555,12.67292976,47.36714935,-230.5756836,-33.16753006
2166,6.894682884,-0.99022162,12.67839813,36.33578491,-225.4877167,-32.98819351
2167,7.947822571,-0.264927894,12.18229294,34.97192383,-215.5435944,-29.39082336
2168,9.04308033,-1.437210441,11.57376099,11.94646549,-215.2283173,-24.26430702
2169,10.22095585,-1.949643016,11.34028244,14.72187328,-205.8828125,-18.63325119
2170,10.40530491,-2.869304657,11.53414726,22.71735382,-178.8548279,-9.049224854
2171,10.58867168,-3.853576183,11.71137238,18.16568756,-143.2307129,-3.328345776
2172,9.884950638,-2.712115049,11.21058273,8.25325489,-96.399086,-5.48438549
2173,9.741138458,-0.250205517,9.079556465,2.516416311,-100.8372345,-4.198955536
2174,10.02032566,0.206160888,5.489551544,-16.29886436,-90.93006897,-4.753706932
2175,10.14768124,-0.686960578,2.311672211,-35.66569138,-41.59181976,-12.89877415
2176,9.738411903,-0.098342977,1.738510609,-31.11795616,-15.14776325,-10.35775852
2177,8.542571068,0.354996592,1.17529273,-22.03611946,21.58107948,-7.376368523
2178,6.388381004,0.039900184,1.68385613,-20.04883385,54.50632095,8.364632607
2179,2.898276567,-1.191681981,4.580230713,-24.26258278,88.22434235,5.162289619
2180,5.886060238,-1.67525816,8.160627365,-57.66508865,123.7544937,2.602574587
2181,2.215145826,-0.679186225,5.043760777,-130.984726,112.7684479,31.06258011
2182,-3.798312902,0.536482215,1.099211097,-68.33486176,61.84362793,30.96843719
2183,0.417269111,-2.445648193,7.139773846,-54.93861771,61.46826935,31.95301437
2184,0.954057455,-2.002269506,5.393366337,-46.60068893,48.82849884,15.62637806
2185,2.550178528,-2.083747387,6.720450401,-31.95491791,41.53736877,8.92048645
2186,3.413964272,-1.244229317,7.588871002,-20.51218605,37.92161942,8.979944229
2187,2.431774855,-2.436231613,8.34864521,-9.63255024,8.684667587,11.21329689
2188,0.878659606,-1.623215675,6.290385246,22.95722389,-18.07819939,9.757817268
2189,0.305233717,-1.472246885,6.643549442,22.60322571,-31.66213417,3.38569665
2190,1.63214922,-1.951555729,8.782019615,-2.929959059,-26.45219421,-0.649757326
2191,3.543540001,-2.416706085,9.206784248,-16.87407112,-32.90748596,-7.553857327
2192,3.599798441,-2.264778137,9.415518761,-9.098313332,-46.25813293,-9.048687935
2193,2.944934845,-2.541515589,9.039055824,12.93276024,-64.82778931,-8.220992088
2194,3.301300287,-2.933244944,8.61273098,29.86038208,-68.81839752,-13.19192982
2195,4.459676743,-2.837533712,8.641739845,35.15189362,-64.26358032,-12.31992817
2196,5.238718987,-2.459516048,9.24246788,37.24617386,-56.94966888,-5.678749561
2197,5.129546165,-1.074134707,9.575842857,31.92849159,-51.35528183,-4.500580788
2198,6.454382896,-0.975403011,9.682495117,14.3076601,-46.60556412,-1.799371123
2199,7.699378967,-1.317427874,9.478085518,-3.711868525,-36.54076004,6.26446104
2200,7.779754162,-1.899162054,9.842731476,-13.56462288,-17.24191093,11.67808437
2201,7.837080956,-2.697897911,10.01564598,-3.974440575,-10.06511879,9.144655228
2202,7.797185898,-2.854662418,10.49135303,12.42226982,-4.506833076,-0.316413105
2203,8.138045311,-2.37270546,10.6830349,26.71901131,-3.265071154,-8.470406532
2204,8.661574364,-2.218953609,11.267663,27.40421295,2.780728102,-12.46200657
2205,8.971859932,-2.235813141,11.1709156,19.7227726,11.1146183,-11.38236713
2206,8.857046127,-1.125630617,10.23688126,8.612658501,22.46823502,-2.489911556
2207,9.212694168,-1.246152759,10.7637291,-4.982126236,38.31886673,5.833976746
2208,9.900225639,-3.558693647,9.906808853,-49.34674072,84.00629425,13.03482342
2209,9.854415894,-2.868862152,7.114555359,-38.95616913,127.8535995,26.64007759
2210,9.658353806,-1.493829489,6.596085072,9.983578682,143.5425415,40.39128494
2211,10.34205914,-1.399024487,6.400048733,-18.13277435,175.3019714,41.24942398
2212,9.766730309,-1.218222141,4.148222923,-21.76066017,182.9393616,42.58382797
2213,8.671556473,-2.693571091,3.231576204,3.628377199,196.5116882,42.50323105
2214,7.69712925,-1.581631541,2.348894596,0.203978404,202.8436432,42.41056442
2215,5.731523037,0.174176708,1.902170658,28.31057167,208.0427704,45.14246368
2216,2.382799864,-0.222278252,3.106229782,37.61017227,209.3699951,48.74471283
2217,-0.452722847,-1.090120673,4.906052113,8.101530075,209.1279602,54.67562866
2218,-2.735740662,-0.969134927,5.654914856,-23.32387543,214.0378571,60.04453659
2219,-3.723289013,-2.349202871,7.439312935,-40.24717712,225.6921539,60.97016144
2220,-3.718878746,-3.383671284,9.401189804,-71.56877136,212.9479828,56.49429703
2221,-3.63399601,-1.872534871,10.12344933,-67.5765686,185.2455444,56.7031517
2222,-4.156768322,-2.267691374,10.62132549,-54.91319656,145.9318085,47.71137238
2223,-4.195331097,-3.285037994,10.44422913,-25.34800148,115.2691574,39.02428436
2224,-4.339266777,-2.148415804,10.41017056,9.598988533,87.56145477,25.17951393
2225,-2.592172384,-1.656502008,9.596601486,31.06445885,50.50009918,20.06931305
2226,-2.969177008,-2.044892311,10.65589237,31.15006256,28.86239243,20.58015633
2227,-4.508352757,-3.400497675,11.4908762,19.21036911,13.64869785,14.00832748
2228,-4.748455048,-2.795633793,9.781567574,27.10898018,-9.584458351,-2.77258873
2229,-3.44223094,-1.705876946,10.31164265,34.9717598,-43.77924728,-19.09484673
2230,-3.291484594,-1.407641649,9.971547127,39.30471802,-85.15805054,-19.91296387
2231,-3.40946269,-2.125178099,9.097945213,30.30080605,-126.851532,-19.1893177
2232,-3.002610922,-3.38664341,10.47536087,23.95359993,-152.5787048,-25.58253479
2233,-2.737330675,-3.61194396,12.69002819,21.08977509,-173.1817169,-37.40412521
2234,-1.309177995,-3.044664621,13.48219299,19.39026451,-200.1542358,-39.82421494
2235,-0.260983646,-2.9374125,12.05336475,33.32975769,-231.7651825,-36.46136856
2236,0.970604956,-1.911695719,11.35787773,40.02248383,-255.0606079,-43.67201996
2237,2.708059072,-1.148638844,10.54296494,33.45718384,-250.4543762,-39.77109909
2238,4.958844185,-1.189149499,10.04367733,33.52233124,-255.5858154,-30.97587776
2239,7.14327383,-1.975897908,9.730120659,25.95017815,-256.7316589,-21.3756237
2240,7.177970886,-3.124644279,9.219080925,-2.560956955,-236.3083954,-16.0787487
2241,6.107001305,-2.762536526,10.09782124,-13.64878082,-217.7166901,-25.98553276
2242,7.503658295,-1.446995258,10.74244595,-23.24396133,-222.799408,-37.9998703
2243,9.782732964,-2.475552082,10.40644455,-19.02335358,-228.66922,-42.98389816
2244,10.49196625,-3.642194271,11.22196484,0.577810585,-220.3222198,-46.85481644
2245,10.64901066,-3.484606266,10.71151352,19.82639885,-204.3153687,-48.12713623
2246,11.05749226,-2.919129372,9.695778847,31.67954063,-182.0281677,-42.75763702
2247,12.27836132,-2.991902828,10.61341763,47.46532059,-152.9075317,-35.14794922
2248,12.30386353,-1.447891355,8.8562994,42.36881638,-105.9402008,-29.00790977
2249,11.47422791,-1.147732973,5.267295837,15.27510166,-58.3832016,-17.91900063
2250,10.69106674,-1.419347048,5.694588661,-7.603059292,-13.17493248,-15.31542683
2251,9.965138435,-1.590148807,5.114002705,-21.76733589,9.297895432,-13.24649334
2252,9.571620941,-1.507863045,2.611349106,-23.45781517,14.00515938,-9.071198463
2253,10.13275623,-0.435631037,0.986825645,-26.22763062,29.05805016,1.141941905
2254,9.559711456,0.058843207,0.746017635,-27.91316986,51.54565048,10.69529819
2255,6.638777733,-1.306878686,-0.334586233,-28.98904419,95.28479004,5.166704178
2256,8.078783989,-0.315151185,3.497698784,-45.7408905,101.4703369,15.12958145
2257,3.223965406,-0.227296919,6.157639503,-111.9151611,131.36409,27.93281174
2258,-0.18100591,2.058831215,-3.182628632,-91.08074951,131.7899017,29.22330284
2259,-0.199467078,-1.322115064,-0.096539438,-7.075127125,135.3802032,22.33359337
2260,2.196224213,-1.523132443,4.226465702,-31.88505554,130.4006348,16.95900345
2261,1.875244379,-0.541464984,5.525372028,-19.50837708,115.1629333,24.21510315
2262,1.134931326,-0.629917026,5.976209164,0.401953548,92.43771362,30.93707657
2263,-0.742848694,-0.854604125,6.028649807,5.814484119,72.53007507,29.47900391
2264,-2.143365622,-0.964123249,5.716533184,9.693766594,46.60414886,24.27552986
2265,-1.576510072,-1.709700584,6.487522125,15.41383457,23.3227253,21.51074791
2266,0.808376193,-2.866586685,6.981759071,14.55084419,11.05365086,19.82639694
2267,1.681569099,-1.88934958,8.565566063,5.825124264,1.744648337,9.567513466
2268,1.929805279,-1.083043814,9.535422325,-5.311414719,-18.44894028,3.438233852
2269,1.543933272,-1.297139049,9.252574921,-4.017813683,-43.29409409,1.369359851
2270,2.248231411,-1.403513074,9.396658897,-4.992322445,-61.53532791,-6.10684824
2271,4.538937092,-2.323540449,9.908157349,-6.714493275,-69.46996307,-10.67537498
2272,6.566714287,-3.108541489,10.23562717,-5.642118931,-66.17256165,-9.502128601
2273,7.405189514,-4.387962341,9.905857086,6.144851208,-62.98659897,-9.414723396
2274,7.194788933,-4.286722183,10.01037312,23.61264801,-61.88648605,-1.393678904
2275,6.513750553,-2.931348324,10.72677994,36.35773468,-60.21188736,8.183793068
2276,7.551812649,-1.899024129,10.70221138,32.8356514,-54.22751236,14.77453423
2277,9.236701012,-0.79134202,10.45249367,21.87656593,-44.35211945,8.703938484
2278,9.620650291,-1.998157859,10.46275043,14.2395277,-26.57185936,3.364059925
2279,8.744925499,-3.193625212,10.75707912,19.65450668,10.87043381,-5.79491663
2280,8.860992432,-3.201514959,9.796774864,19.31258202,27.59689903,-15.65800095
2281,9.998771667,-2.745325565,10.11925125,23.67687798,62.59794617,-11.13619041
2282,9.509388924,-2.485421658,9.836572647,10.49238777,101.1142502,-3.70277071
2283,9.59602356,-0.98472631,9.505208969,-12.58465767,151.2520142,2.963278055
2284,9.191781044,-0.265626341,8.974308014,-47.49567413,175.5902405,18.63034821
2285,8.344642639,-2.337486506,9.818502426,-51.63093185,201.6382599,35.43956375
2286,7.75582552,-2.969095707,10.14438534,-47.60542679,215.5325775,37.80197144
2287,7.248251438,-2.796267271,6.634394169,-10.87980652,196.587677,42.42023849
2288,7.120633602,-1.897483826,5.269980431,11.45725918,188.8712311,38.47558212
2289,7.287827492,-1.582089305,3.985059261,10.30155468,183.7524872,41.49314499
2290,5.4369874,-1.527015209,4.506608009,-14.42020798,185.3857269,41.98512268
2291,2.249370098,-1.230114937,5.379486084,5.096448421,171.5227203,45.05679321
2292,-1.118073106,-1.18006444,6.862837791,17.95897102,160.2232513,48.4252243
2293,-1.684052706,-3.433122158,9.156844139,3.826618671,162.937149,52.29862595
2294,-1.756513119,-4.118383408,9.147850037,-34.13881683,158.7827911,57.47940445
2295,-3.378729582,-3.429538965,10.64499187,-57.14810944,176.68013,52.95893097
2296,-2.914111137,-3.847650051,12.02759075,-99.8583374,181.1190186,46.86236572
2297,-4.360220432,-4.253045559,11.29640484,-78.960495,158.8881836,41.98971176
2298,-2.889483452,-3.595976114,10.43494892,-64.96263885,121.7399445,30.63077927
2299,-1.603464961,-2.106164455,9.502699852,-28.28696632,73.72878265,32.6205101
2300,-4.825617313,-0.807682276,7.652050018,-7.727480412,37.17417526,15.33569622
2301,-3.744581699,-0.499705553,6.669355869,3.888189793,-3.05708909,11.46909237
2302,-2.299747944,-2.177779436,7.486859322,3.14090991,-19.25290871,10.86262703
2303,-3.220509291,-4.318435192,9.167622566,8.133727074,-23.32313347,-0.444003463
2304,-3.477087975,-4.178177357,11.03690052,4.818082333,-43.3008194,-20.29487991
2305,-3.92639184,-2.081228018,10.26782513,25.81498528,-85.97254944,-38.60007477
2306,-3.042072058,-1.617903829,10.48845768,37.14593506,-125.7912979,-52.15557861
2307,-1.012806535,-2.913401842,10.74728489,46.5091362,-157.6481171,-49.52510834
2308,-0.507970035,-3.310313225,10.34183311,59.48018265,-179.3616943,-50.00417709
2309,0.51840508,-4.072386265,10.98557663,73.97115326,-193.5934296,-65.5746994
2310,2.205442429,-4.474479198,12.46103573,89.7946167,-204.3885193,-72.32389832
2311,4.096138,-2.413609743,12.65558815,92.94834137,-217.854248,-69.36750793
2312,5.663661003,-1.16263175,12.92261791,72.98625946,-231.0327606,-65.94501495
2313,6.861168861,-0.692040682,12.42265606,52.37602234,-242.7845917,-52.83335495
2314,7.369843006,-1.243466854,12.01063538,42.06258011,-233.7544556,-50.27596283
2315,7.826689243,-2.710012197,12.03976536,29.71240616,-213.5359497,-50.95752716
2316,8.718247414,-2.970531702,11.73957253,24.97348404,-192.8136444,-49.46134949
2317,8.808016777,-1.959887505,11.74459076,14.53012657,-170.0201263,-45.79789352
2318,9.191345215,-1.146114707,11.13539219,21.47811317,-140.9936371,-33.04309845
2319,9.694828987,-2.115220308,9.456935883,21.10572624,-102.7808456,-13.42408085
2320,9.094189644,-1.629857779,7.300979137,8.857321739,-54.87068558,-8.482559204
2321,8.40256691,-1.1755054,6.05344677,-0.543943703,-14.47929955,-3.190070868
2322,8.737017632,-0.344267309,5.661585331,6.19797945,3.306356668,-3.535545588
2323,9.130643845,-0.629956245,3.748124599,11.63246155,21.83845329,1.109358788
2324,7.293840885,0.017936472,5.197781563,-0.567736089,50.05828094,-3.529397488
2325,5.580710411,1.356980801,4.844412804,-59.03676224,67.31601715,1.631876111
2326,1.412057281,1.641945124,1.598340631,-69.5009613,58.98609543,7.416983604
2327,0.491624713,-0.778934181,0.726463556,-55.45080566,40.3060112,10.01272297
2328,0.533305824,-2.969058275,4.941515923,-75.15120697,40.42881393,13.40794277
2329,1.890617132,-2.424570084,5.017323971,-61.49534988,31.51486206,14.92122936
2330,0.641493917,-0.782782972,5.196339607,-32.18273163,15.31183624,7.092195511
2331,-0.895810604,-1.612246752,7.08240509,-1.039376616,-5.312345505,10.19107342
2332,-0.275212973,-2.221413374,8.599538803,5.137546062,-12.20084858,2.258445978
2333,1.446405411,-1.122585773,8.982765198,9.3540411,-18.10197449,-3.864520311
2334,2.638005018,-1.644118547,9.249307632,6.76887846,-48.68579102,3.4772861
2335,2.081742764,-3.293050528,8.054986954,28.81075668,-60.64899445,-5.386129379
2336,2.569538355,-2.348240852,8.83417511,35.3568573,-62.65617371,-11.34061623
2337,3.351193905,-0.716386199,10.16376019,18.58621216,-63.2920723,-13.6122036
2338,4.300299644,-0.424666077,10.30758095,-5.097254753,-73.11238098,-4.830723763
2339,4.338675499,-1.097766876,9.52831459,-2.730957031,-90.822052,-1.719161749
2340,5.466572285,-1.758578062,9.613649368,5.717571259,-101.5739059,2.181673288
2341,6.919054508,-1.819509029,9.583800316,12.99511909,-97.23001862,8.660725594
2342,7.831179619,-2.63640213,8.928442001,8.523571014,-82.62740326,7.432481289
2343,9.009970665,-3.347044468,8.933123589,-0.871841431,-59.19539261,-4.305342674
2344,8.83454895,-3.742289305,9.00917244,4.458325386,-33.82390213,-5.893712044
2345,7.587021828,-3.836644411,9.388360023,21.81567192,-17.95976639,-2.800641298
2346,8.420665741,-2.501972675,9.241353035,39.02362442,-10.3842926,-2.850620031
2347,9.659954071,-0.785903454,9.726601601,33.98225403,-6.542358398,-6.901795387
2348,8.851804733,-0.077452682,9.704400063,14.68452454,11.98821926,-12.65970325
2349,10.07399082,-0.584365726,9.692587852,-10.53713131,36.2502327,-6.501509666
2350,9.349674225,-1.679063797,9.392251015,-20.28725624,66.1932373,-4.324482918
2351,8.649611473,-1.756963968,9.627310753,-20.07398605,91.49337006,-1.02611506
2352,9.485990524,-3.226232052,10.1352787,-18.70086098,116.6887283,2.463986158
2353,8.709460258,-2.784665585,8.24045372,-6.091412067,145.3749084,8.430084229
2354,7.836091042,-0.653544366,6.981994629,12.75469208,156.6672821,17.04953766
2355,9.029788971,0.202229872,7.15929842,9.695128441,172.6825104,19.54181862
2356,9.991249084,0.79888016,5.760379791,-1.442513108,182.8604889,20.96320152
2357,7.827804565,1.545458555,3.458945513,13.53469849,180.9041901,23.16153145
2358,7.691121578,-0.211725593,3.028806686,16.04251671,174.2427216,27.99448013
2359,6.63744688,-0.53494966,2.351841927,-17.41488075,189.0330353,30.25826836
2360,3.830744505,0.966411471,2.566542387,1.281601429,196.7556,29.62125778
2361,0.407219708,-0.588717103,4.409571171,2.407595873,199.2844086,35.38291931
2362,-1.84451735,-1.645750046,6.475944996,-37.21289825,204.0209045,37.83554459
2363,-1.875977039,-1.740304112,8.220913887,-68.39344788,207.2635345,46.42492676
2364,-3.370474815,-1.544463396,7.669756413,-74.9402771,202.0345764,48.49585342
2365,-4.691251755,-1.49259007,8.422026634,-65.23862457,179.0957794,44.24195862
2366,-3.983832121,-2.302127123,9.959557533,-77.04931641,152.2047882,41.75609207
2367,-3.898159027,-3.520545959,10.20549965,-60.13937378,128.3176117,37.44231033
2368,-3.361156464,-3.146060467,9.991920471,-29.72766113,103.9596481,26.39986992
2369,-4.198464394,-1.963338137,7.795843601,-7.931571007,75.50878143,16.79787254
2370,-4.26601553,-2.467119455,8.997216225,-2.718251467,46.2311058,4.909479618
2371,-3.150034428,-2.544857502,9.170947075,-7.720077515,13.8731699,5.624604702
2372,-3.228221893,-2.953089476,9.793307304,-13.73543072,-8.44431591,1.021793962
2373,-2.805480957,-2.388082027,10.21187401,-27.66302681,-25.31752968,-4.384282112
2374,-2.706213951,-2.103284121,10.74628162,-31.00282288,-38.00296021,-12.33526325
2375,-2.271968365,-3.242683649,10.53811359,-33.34101105,-52.41841125,-15.30641651
2376,-1.497387886,-3.743796349,10.37009525,-32.70671082,-73.31410217,-19.69249344
2377,-0.718318939,-4.414464474,10.39931393,-23.39916039,-88.43546295,-23.76179504
2378,-1.053239822,-4.316365719,11.14652157,-9.666740417,-102.1193466,-28.66465569
2379,-1.8213588,-2.486158848,11.65762901,3.077106714,-118.1476288,-34.12490082
2380,-1.473598599,-1.659320474,11.78208828,-2.947599649,-136.1535339,-42.79130554
2381,-0.095007598,-3.353182077,11.42504501,14.03269768,-162.1613922,-51.24185181
2382,0.264226496,-5.869288921,12.03150082,59.92436981,-199.2761383,-47.33622742
2383,0.859012008,-6.611867428,12.36024189,67.54154205,-214.559494,-41.15205765
2384,2.276060104,-5.204986095,12.19784546,56.75268173,-219.6458435,-44.77062225
2385,3.700048685,-4.411150455,10.65323639,50.21190262,-228.8025513,-38.56617737
2386,5.629454613,-4.715305805,10.43309689,64.29541016,-225.1750488,-26.42499733
2387,6.646268368,-0.939293742,10.41170216,70.6437149,-219.3050079,-30.02883148
2388,6.787327766,0.93432945,10.33890057,56.95830917,-216.4405365,-37.25765228
2389,7.558440685,-0.910833657,11.08748627,45.97943115,-215.530014,-32.33417892
2390,9.058612823,-2.788980246,11.58932495,30.3655014,-210.8670044,-33.27035141
2391,9.944727898,-2.525185823,11.22568703,15.84550095,-213.4456787,-34.24736023
2392,9.987984657,-1.85404563,9.939929008,5.370421886,-195.881485,-31.14096069
2393,10.10883331,-1.413280129,9.857798576,6.233928204,-170.8270416,-23.93806267
2394,11.28331852,-2.277246952,10.56877995,25.24043083,-131.1334534,-14.0993824
2395,11.84847546,-1.945711255,7.79475832,15.55531406,-80.3412323,-5.100429535
2396,11.57400227,-2.002071619,5.237518311,0.356779993,-34.46503067,-7.029922009
2397,9.734934807,-1.165462375,4.771019936,-2.776194572,14.25319576,-5.42949295
2398,9.762432098,-0.90302223,3.33536005,0.0716324,17.34402466,-0.863571644
2399,10.84131336,-0.444916636,0.766062379,9.991281509,18.31887817,7.514439106
2400,10.94650745,-0.485407382,-0.031702876,-5.59470129,61.16307449,5.758183479
2401,6.864455223,0.994029164,1.634339809,-10.15056896,83.11659241,2.628465414
2402,6.175478458,0.874601483,2.613863945,-27.00815773,73.14080048,7.098994732
2403,4.612886429,-1.353863239,3.43124938,-92.59555817,102.3379364,24.4048233
2404,1.135576487,-0.30855912,-1.349081993,-74.96805573,107.8291092,27.1791935
2405,-1.386961937,-0.625270903,0.313306957,-0.411723882,112.2897949,21.71435928
2406,2.202557564,-2.006173611,4.903819084,-33.4630928,117.8501511,23.58094597
2407,2.059784412,-1.367595315,5.516440392,-33.46642303,117.0927353,24.68595505
2408,1.503101587,-1.339595914,6.034748077,-20.50992393,105.9176941,25.36331177
2409,0.436637819,-1.120580435,6.922589302,-5.813922882,91.97263336,23.95830345
2410,-0.694251418,-0.063966043,7.324552536,1.743488789,63.07764435,16.31685829
2411,-1.913764596,-0.613701999,6.680732727,19.15089607,31.07674599,13.72474003
2412,-0.622280061,-1.869612932,7.336111546,31.70025444,13.42754078,6.771450996
2413,2.32752347,-4.356361389,8.317127228,29.41261864,6.91997242,-1.240792036
2414,1.264051318,-2.614588976,9.080780029,24.0104866,-6.698907375,-4.36822319
2415,0.214823961,-1.648608685,9.230508804,18.84227562,-28.14014053,-10.63894653
2416,1.041790485,-2.120617151,9.060199738,17.92250443,-51.40948105,-14.85009003
2417,2.957927704,-2.69759655,10.56224537,11.4904213,-62.28282166,-17.08970642
2418,5.540917397,-2.235257149,11.20900154,15.31398964,-70.81903839,-23.0739193
2419,6.460072517,-2.449990988,11.21753311,29.85251045,-72.67705536,-27.55305099
2420,7.025467396,-2.051595449,11.00605011,47.03104019,-68.7749176,-23.49277496
2421,7.834628105,-1.361418486,11.3596344,50.79701614,-62.24193192,-17.96129036
2422,8.650588036,-1.571906567,11.60428905,40.65788269,-57.49350739,-7.21618557
2423,8.897362709,-1.426294208,11.14327717,38.83115005,-46.95519257,5.766224384
2424,9.268264771,-0.830010533,10.54171562,32.73706818,-28.36189461,-5.070996284
2425,6.927258492,-1.624592423,12.42340469,28.34401703,15.22673702,-14.43331146
2426,8.137917519,-1.49998498,13.1929493,-6.33941555,19.91397095,-17.3174572
2427,9.903754234,-1.057339668,10.11904716,-9.356981277,19.43198204,-13.90015793
2428,8.308200836,-1.524116278,9.073768616,14.46130371,43.24204254,-4.092663765
2429,8.4535532,-1.441705465,9.272802353,10.40400696,71.52845001,3.190901756
2430,10.37344456,-1.552857757,9.362478256,-24.03235054,118.4868851,13.44478226
2431,10.6163063,-1.051497936,7.322375298,-29.02389145,182.5279388,16.90832329
2432,10.53432846,-2.109621763,8.300031662,10.41858292,191.5810089,15.36165905
2433,9.328905106,-1.456932306,6.382283688,0.278775841,181.7372284,18.48269653
2434,7.903052807,0.388256192,4.291810513,3.142530441,167.3677979,15.90686703
2435,7.010956287,0.457418174,4.2420578,25.95516586,188.7486877,12.19525433
2436,5.381969452,-1.414013624,5.519129753,10.49058151,200.46698,11.76521301
2437,3.533811092,-0.019763125,6.075735092,20.52688408,212.1283875,15.79865837
2438,1.851463079,0.980383515,6.893921375,-6.001737595,221.8325195,28.78458595
2439,-0.253427386,-0.490109652,7.148777008,-49.38528061,224.5819702,45.4514122
2440,-0.953614414,-3.621697664,7.779999733,-70.2545929,222.8453369,60.60808182
2441,-3.066659689,-2.506799698,8.262327194,-90.84403992,235.6027832,51.91398621
2442,-3.293805361,-0.275427043,6.544070244,-82.59774017,231.9852142,50.44946671
2443,-4.596852303,-2.03865099,7.985949516,-81.01068878,226.036026,37.38287735
2444,-6.409606934,-1.455985188,8.228208542,-84.79957581,201.6283264,21.98593521
2445,-3.602156162,-2.210489273,11.48182297,-71.70275879,138.4954681,19.3059845
2446,-5.716098309,-2.091429949,7.831126213,-61.57434082,84.64713287,25.00955582
2447,-6.778708935,-2.359286547,9.237503052,-40.47171783,51.62638092,13.17662239
2448,-4.809595585,-2.269176483,9.821955681,-39.15117264,19.4054718,5.940079689
2449,-5.560052395,-1.980201602,9.430173874,4.717990398,-13.37795067,-1.993316054
2450,-5.886892796,-2.336733341,9.972805977,10.94375324,-47.09578705,-16.54673004
2451,-4.012548923,-3.099669456,9.259573936,19.07696342,-90.18711853,-28.529953
2452,-2.633822918,-3.30397439,9.157810211,31.51876831,-131.4226837,-30.6072731
2453,-1.479037404,-2.351172447,8.814703941,39.3223381,-168.954071,-34.35079575
2454,-0.689794242,-2.37213707,9.21665287,29.65903854,-190.7511749,-33.01027679
2455,-0.589160264,-2.73071909,10.26306725,9.425227165,-196.9281769,-34.01764297
2456,0.255374521,-4.593987465,11.53534126,8.752963066,-200.4633789,-46.02620697
2457,1.754987359,-4.998344898,12.19761944,22.65345573,-214.2876282,-55.61491394
2458,3.937963963,-4.430029392,13.49954224,39.92136765,-227.6638489,-54.3959465
2459,5.721934319,-4.118178844,14.29284477,48.7408638,-246.3798218,-55.7795105
2460,5.842913628,-3.412032127,14.03013706,60.98790741,-265.4219055,-56.37250519
2461,5.389553547,-3.642531157,13.20739174,68.65314484,-271.1771851,-53.20272446
2462,6.616610527,-2.694787741,11.57501888,71.39293671,-248.1278839,-50.64667511
2463,8.29539299,-1.521766782,11.09687519,60.36981583,-221.6660767,-43.66615677
2464,9.058218956,-0.792696059,10.57764435,39.17457962,-194.1010437,-38.29430008
2465,9.951934814,-0.435250223,10.48752975,32.347435,-160.4930573,-32.0182724
2466,10.77036953,-0.73641026,10.46997643,30.50884628,-119.0433807,-18.63389015
2467,9.527573586,-1.848588705,9.585188866,14.40466118,-76.14032745,-9.216396332
2468,9.095286369,-1.731202126,7.44064188,0.107599519,-38.24747086,-7.922350407
2469,9.411183357,-0.247964159,5.685154915,-11.56838226,-14.87850857,-6.422387123
2470,7.859436512,-0.847013414,5.519365788,-10.58169174,-0.780336022,-0.695289016
2471,9.157694817,0.203425437,4.447850227,0.14568527,20.33456993,-5.302676201
2472,7.70346117,0.372643709,7.358120918,-57.79023743,34.64446259,16.727911
2473,2.407720327,0.270976901,4.359549046,-111.8494263,76.64511108,19.06554985
2474,-1.011195421,0.818033218,0.044119131,-67.36031342,33.22924805,14.85116386
2475,-0.004592093,-1.507594466,3.324866772,-27.49038506,36.03494644,15.59080219
2476,1.928742766,-2.275290012,3.492434263,-39.64788055,22.96569633,20.61249733
2477,1.096699238,-1.89874649,3.920001745,-27.23246765,29.86936378,24.2678051
2478,-0.736293793,-1.267186165,5.757009983,-22.84151459,27.68290138,20.12002754
2479,-1.702618122,-1.07299912,8.588293076,-39.81877136,16.02687836,15.54584408
2480,0.319694966,-1.384993792,8.436563492,-42.71036911,-2.80458951,4.46630764
2481,3.348687887,-2.82428503,7.508538723,-23.50077057,-28.97535706,2.691895008
2482,2.630130768,-2.586076021,7.478309631,2.719748735,-50.18924332,12.24393368
2483,1.252574921,-2.481971502,8.095367432,1.954825163,-59.2774353,12.23566723
2484,3.284846067,-2.497209549,9.020007133,-21.64344025,-63.93039322,6.585739613
2485,4.626229286,-3.711431742,10.03367805,-31.10542679,-64.29244995,1.839012265
2486,4.274399281,-3.232592821,9.283787727,-10.73713398,-68.08492279,2.510893822
2487,4.890651703,-2.658813477,9.469550133,13.29129601,-69.95035553,4.263746262
2488,6.095663071,-3.005612612,9.751232147,22.58543205,-65.58024597,6.641609192
2489,6.57970047,-2.70661521,9.647641182,32.35951233,-54.52225113,1.626755834
2490,7.739834785,-2.094068527,9.107949257,30.65517616,-41.25679016,-3.237507343
2491,8.004886627,-1.626394033,9.530387878,32.72141647,-33.09127808,-1.111682892
2492,7.894317627,-2.271597624,10.13249779,37.74217606,-22.06781006,0.040814105
2493,8.901304245,-2.161880255,10.76570988,33.85446548,-19.82919121,-2.590507984
2494,10.33323097,-2.577219725,11.0475359,27.11330605,-3.643409967,-7.349077225
2495,10.60528088,-1.728286862,10.58044434,16.0997715,20.17533875,-5.159082413
2496,9.600029945,-0.809883118,10.28643227,16.38416481,36.55393219,-1.42615509
2497,8.178641319,-1.573893309,9.757997513,17.25305748,65.61389923,3.38419652
2498,8.766916275,-2.323738337,9.587670326,8.611214638,92.63568115,8.67669487
2499,9.523207664,-2.388721228,8.766381264,-8.006443024,133.6407776,22.7226944
2500,8.673057556,-1.138548732,6.720600605,-13.33951283,166.1939087,33.6390419
2501,8.852107048,-0.976994812,5.510388374,-1.157410383,180.5007629,38.39274979
2502,7.561142445,-1.175144911,4.196426392,-13.1022234,194.9862213,40.57645416
2503,6.596483707,-0.55084902,2.463946104,-12.80106258,199.3659058,46.32532501
2504,6.875928879,-2.468560696,2.748659611,-4.792155266,207.412323,44.92704391
2505,5.766495228,-1.443190098,2.965404749,-1.484784722,215.329895,45.86998367
2506,2.197044134,-0.315211684,3.327912807,15.72239208,220.1414795,50.73205185
2507,-0.875735283,-1.770100474,5.331271648,1.606580734,215.9358978,53.4583168
2508,-2.578654289,-1.277187824,7.290044308,-26.75389099,215.5800629,60.85236359
2509,-2.851119518,-1.347194314,9.048863411,-56.24340439,209.3959198,63.08890152
2510,-3.530733347,-2.891607285,10.04554367,-83.87376404,199.0797424,57.38143921
2511,-4.790777683,-2.952967644,9.485798836,-89.87323761,173.9389343,45.13911057
2512,-6.552629471,-3.851384878,9.977546692,-64.87136841,147.9811249,34.41361618
2513,-3.131857395,-5.071818829,11.79048061,-55.46858215,91.0763855,29.48251152
2514,-3.661717176,-4.776655197,9.570219994,-2.583643198,73.83756256,30.70309448
2515,-4.218958855,-3.303319693,9.232778549,-2.38316083,41.3115654,26.7117424
2516,-4.308329105,-2.205394506,9.032109261,17.35325432,16.16073418,15.09529495
2517,-2.130456686,-1.862613678,9.208109856,4.106090546,-10.21694756,12.7325964
2518,-2.094924927,-2.527967691,9.849342346,2.250886917,-24.20284081,-0.477095127
2519,-3.324672699,-3.441110849,9.901036263,3.085008383,-44.70698166,-9.999905586
2520,-3.149626493,-3.889939785,10.59913921,11.90388393,-59.34877014,-16.34628105
2521,-1.76018858,-3.168902874,10.41617298,10.79269981,-79.34182739,-29.04989433
2522,-1.562182784,-3.151511431,10.2845068,17.30764389,-101.4045868,-35.38494492
2523,-1.677126884,-3.563986778,10.90186882,21.68651962,-121.3359756,-38.15558624
2524,-1.40328598,-2.736014843,11.28965092,23.71222115,-140.0907593,-46.50481796
2525,-0.384868562,-3.107836246,11.72804451,25.64510918,-150.7615814,-56.47243881
2526,0.019925296,-3.824824333,12.4535656,52.01418304,-165.4146576,-53.73247147
2527,0.06030345,-4.541425705,12.63960838,75.66804504,-193.3244629,-49.12350464
2528,1.66593945,-4.582548618,11.65254116,67.19454193,-206.9385986,-45.10271454
2529,3.338632822,-2.9777143,11.5354538,56.71398926,-213.0188446,-39.31890869
2530,5.33989048,-0.494130045,10.50876141,60.77995682,-228.4979706,-32.5940361
2531,5.621985435,-1.739385843,10.24413204,50.51236343,-228.6459961,-24.81591606
2532,5.79574585,-3.408511639,9.35640049,27.58270836,-213.4982605,-27.98982239
2533,6.921271324,-2.469193935,10.05092812,23.58097076,-202.3315125,-45.68922424
2534,8.188749313,-1.390148878,10.75959969,12.96860123,-208.5932617,-46.36893082
2535,9.128857613,-2.133390903,10.8822546,-6.957590103,-211.6509552,-38.15991592
2536,9.414305687,-2.633342743,10.05049133,-4.393059731,-199.5200195,-28.63055038
2537,9.847687721,-3.031524897,10.43217468,8.373270988,-172.129715,-20.61413002
2538,10.72844696,-3.417920828,11.13081264,9.393040657,-139.5452271,-13.4080267
2539,10.44864655,-2.754236937,10.06918621,20.07017708,-102.3747711,-4.606268406
2540,9.9165802,-1.837647676,6.97852087,8.59400177,-73.65507507,1.983812451
2541,8.574533463,-0.25221172,4.63776207,-0.506547093,-50.87973404,8.711396217
2542,8.992218018,-0.313426793,4.400840759,-17.56176376,-22.25392342,5.492723942
2543,9.880205154,-1.593778968,4.339026451,-16.65112877,-5.229696274,4.145861626
2544,9.526783943,-0.800728619,3.301604033,-12.27579403,18.28163147,-8.961004257
2545,8.929833412,0.494532555,1.275388122,0.634551346,37.1376152,-6.391949177
2546,6.795875072,0.625458002,2.368305683,-11.83416557,62.63282013,-5.522926331
2547,6.031687737,0.639175236,3.936501265,-120.3164444,84.31587982,7.06566143
2548,2.560381889,0.567310512,-2.85486722,-119.0123978,105.9575043,22.76073456
2549,-0.36074096,-2.567407608,-1.496220708,-35.14408493,94.03217316,23.6316967
2550,0.60982877,-4.024637699,2.796116352,-33.09991837,86.15923309,21.69523811
2551,2.739580393,-1.6987288,3.275499582,-20.85098457,94.74119568,13.49567318
2552,0.308345348,-1.257002473,4.567048073,-8.628637314,94.02320862,27.5170784
2553,1.840420842,-0.469840437,7.82716465,-23.79184151,89.08264923,22.53257179
2554,1.938390374,-0.989851058,8.559550285,-23.30947304,76.9544754,18.31708336
2555,-0.937209487,-1.722657681,7.642280102,17.6391716,47.05114365,17.23801041
2556,-1.690564275,-3.41174531,7.216074944,43.97789383,23.04990578,16.37243271
2557,1.487955451,-4.542758465,7.717418194,40.95117188,11.24441624,8.880846977
2558,2.004751205,-2.698462963,8.516289711,36.0533371,1.23829639,4.273965836
2559,0.981183231,-1.422837973,9.675584793,29.70890617,-18.41812134,3.119659424
2560,1.372401953,-1.824220181,9.661475182,33.02341461,-41.49868011,-0.752649367
2561,3.308369398,-2.201436758,10.24831295,29.13152504,-57.64139557,-6.51044178
2562,5.091707706,-3.198259354,10.65821171,23.56015968,-65.51976013,-8.42766571
2563,6.5359869,-3.503951788,11.27928638,26.3983593,-65.16271973,-16.40688705
2564,7.448040485,-3.017593145,10.51707649,39.15111542,-60.53921127,-19.64958954
2565,8.059352875,-2.067475319,10.89862347,40.35379791,-53.32726669,-17.99930191
2566,7.836773872,-1.797270894,11.08797264,37.56740952,-49.11671448,-7.627151966
2567,7.926332951,-1.014684558,10.81089973,36.49525833,-51.88671875,1.21052444
2568,9.323514938,-0.729024053,10.42543697,23.58992767,-40.24940872,4.10273838
2569,7.037103176,-1.911470652,12.31823254,3.951431036,-10.18099403,-18.39060783
2570,8.44209671,-2.463465929,11.7757988,-7.426555157,6.515425682,-33.67556
2571,11.26576424,-2.261101961,10.8049593,-5.13195467,17.3175602,-29.46979332
2572,10.41074181,-3.472696066,10.80002594,20.72587013,46.09020996,-15.01494503
2573,8.354417801,-2.409199715,9.688232422,33.6687088,65.71121216,2.38664341
2574,9.099578857,-0.903612137,8.925978661,24.92597961,80.96987915,15.85873127
2575,8.839719772,-0.686917424,7.733253002,7.549839497,130.3829346,18.57386398
2576,9.730713844,-1.145168066,10.13381481,0.02322657,164.3695221,23.43998909
2577,10.47753334,-1.226941824,10.55446243,-13.50709534,189.8008423,26.11084175
2578,9.441576004,0.046209708,7.128781796,15.59114838,179.6249847,26.54519081
2579,8.715143204,0.272476494,5.364679813,44.48874664,170.6521759,28.1836071
2580,8.132056236,0.881709158,4.956883907,23.10868454,177.6390381,27.5334053
2581,7.581137657,-0.162041202,5.661691189,6.747225761,195.8609009,26.9566288
2582,5.323946476,0.099691145,6.817174911,6.754669666,208.5065765,33.15156555
2583,1.992442012,0.840011358,7.015625,6.580405712,208.0152435,39.7375145
2584,0.409159213,0.868087351,6.579338551,-11.94210625,218.0248108,45.2503624
2585,-0.848416924,0.135525629,7.155065536,-53.66517639,228.7849579,52.45998383
2586,-0.54449141,-2.301822901,7.199786186,-120.4329987,251.0810852,57.27178574
2587,-2.358907938,-3.381485462,5.830487251,-122.1594925,254.1511536,63.56632233
2588,-4.823915482,-2.422244787,6.137355328,-71.5411911,223.6089783,62.91384125
2589,-5.818028927,-2.702404499,6.762648582,-48.2335701,178.6156616,58.7274971
2590,-5.521312237,-2.718315601,7.250551224,-26.29945755,134.9828033,39.11322021
2591,-5.416094303,-2.520421505,8.788600922,-14.24309349,114.0445099,21.65893364
2592,-4.748401165,-1.34427464,8.724714279,-4.396160603,75.87928772,14.16448021
2593,-4.600999355,-0.41536963,8.758909225,3.587591171,23.10586357,6.52246666
2594,-6.614852905,-0.151912719,9.11223793,12.9001646,-28.76763725,1.521143794
2595,-6.358652115,-0.796603739,9.152153969,10.44550133,-70.56900024,-13.61123085
2596,-4.278324604,-0.70956248,9.61110878,9.850481033,-109.5294266,-27.38638687
2597,-2.543784857,-1.558484077,9.882997513,19.39183426,-151.4958038,-39.95560074
2598,-0.987045646,-2.547658682,10.38409615,25.31028557,-193.0128632,-43.01486206
2599,-0.037621588,-2.447210073,9.997375488,29.63414192,-213.2581024,-44.84034729
2600,0.173699453,-2.197660208,10.23332214,26.9397068,-223.0432739,-50.30121231
2601,1.099953175,-3.588126183,10.58161926,27.15103149,-235.2737885,-46.84817505
2602,3.43098259,-4.814211369,11.09122658,41.20469666,-246.9280396,-47.97237396
2603,4.659609318,-3.490528107,12.69787216,51.64815521,-249.5242157,-53.35280228
2604,5.764430523,-1.955079794,13.29544258,40.60407639,-255.2219086,-60.15409088
2605,6.032625198,-1.084062815,12.93915653,28.39861679,-267.1417542,-54.03376389
2606,6.577402592,-1.594051957,12.63409233,27.83026123,-272.3307495,-45.92294693
2607,7.449894905,-1.928446293,11.22216606,32.58140182,-257.8027344,-42.41104126
2608,10.16065216,-0.391098142,8.465140343,52.73856354,-234.5345154,-25.4239769
2609,11.99482059,-1.521662951,11.7909956,42.84655762,-185.0984497,-9.469100952
2610,12.02315712,-1.867210507,13.27615833,5.266194344,-118.411087,-5.399098396
2611,9.574913025,-2.947657824,14.37978268,-6.170188427,-66.01719666,0.81967032
2612,7.234706879,-3.142545938,12.6454258,-24.74517822,-37.46483612,-3.42653656
2613,7.016495705,-1.787136793,9.09283638,-23.21237755,-54.10870743,1.868046761
2614,8.339065552,-1.604102135,4.739810467,10.3009119,-90.33410645,9.809414864
2615,9.593020439,-1.683089375,1.427997112,12.38523579,-63.49202728,-11.60469532
2616,7.750084877,1.132194638,0.478411824,20.94521332,-0.753623724,-18.59783745
2617,6.558718681,1.983115077,2.050611019,1.549172044,33.22606659,-14.42036152
2618,7.313116074,0.443535,6.882526398,-49.79228592,96.71636963,7.212006092
2619,3.503181934,-2.890835285,8.661764145,-168.5739441,170.9540253,7.348086834
2620,-3.297050714,-1.297646165,1.537818432,-118.2443619,106.4949188,-11.95808792
2621,-2.941862345,-1.323419571,2.855657101,24.75811005,43.453022,-14.5953989
2622,2.477633476,-0.785556674,5.754435539,-30.69548225,43.70981598,-2.481722593
2623,1.670778394,-0.141061217,5.886851788,5.284565449,25.39011955,3.006105661
2624,1.146273255,-1.108103752,6.266699314,15.08317566,0.616229177,2.552576303
2625,1.372840762,-1.360884428,8.945925713,-4.075512886,-2.99675703,4.732843876
2626,1.104896069,-0.892119467,9.004275322,-11.40712261,-14.28840065,3.358507633
2627,1.156764865,-2.038560867,8.108656883,-7.661282539,-39.36732101,-2.469161749
2628,2.2968297,-2.281994104,7.523488045,2.005176067,-55.31868362,-5.8008461
2629,3.868436813,-1.196989775,8.592598915,-9.110297203,-54.07391739,-5.453008175
2630,4.659292698,-2.91872263,9.398920059,-20.56416702,-50.08094406,-0.446401894
2631,4.485296726,-3.101230383,9.14279747,-10.75091457,-48.44959641,0.508813381
2632,4.893245697,-2.534523964,9.862057686,-1.852793217,-48.03936386,-5.588077068
2633,5.98213625,-2.169992447,10.14878654,9.662707329,-56.95537567,-1.041213155
2634,6.338320255,-2.431821823,9.506786346,22.06844711,-53.83834076,0.164666012
2635,7.109437943,-2.481789589,8.715206146,22.9401474,-40.39981079,-5.656172752
2636,7.478256226,-2.669002056,8.916369438,12.24632359,-24.13033485,-6.870568275
2637,7.34307003,-2.288583994,9.114931107,7.974460125,-16.64739799,-4.62849617
2638,7.949466705,-1.830037713,9.699141502,15.29698563,-20.554842,-6.255314827
2639,8.589552879,-1.21823144,9.814599991,17.25547791,-18.56171036,-7.600498199
2640,8.918826103,-0.392859161,9.910177231,8.04712677,-7.535645962,-10.6424942
2641,9.330636024,-0.979669034,10.11718464,-7.27621603,4.234583855,-13.31955147
2642,8.209124565,-2.353409529,10.62630272,-12.42289734,19.63394547,-9.004272461
2643,7.742381096,-2.26127696,9.798506737,-5.128835201,38.14462662,1.320277452
2644,8.252441406,-2.319705009,9.081908226,-4.12487793,68.05847168,7.063401699
2645,8.038570404,-1.216344833,8.175876617,-20.89391327,113.5749741,13.55726051
2646,7.680391788,-0.877025604,7.620411396,-34.663311,150.632309,22.95188904
2647,8.153564453,-1.973727703,8.718336105,-26.33225822,166.33638,32.7394104
2648,9.940999031,-2.594643593,8.801318169,-37.89846802,181.2214966,37.57192612
2649,9.65029335,-1.703272104,5.247211456,-30.9318924,186.5670319,37.39569092
2650,8.935566902,-1.629391193,2.715093374,-4.500410557,172.568222,32.6636734
2651,8.045658112,-2.311275482,2.695657492,9.327136993,173.9551544,31.03811073
2652,6.627267838,-0.364177078,2.253689051,11.42103004,195.1185913,28.9576149
2653,3.398909092,-0.418296486,3.506759167,22.64477348,211.3793335,31.10611534
2654,0.020320222,-1.761034966,5.115053177,12.76122952,214.3971863,36.89435196
2655,-1.024394751,-1.275193691,5.944183826,3.155414343,213.5835724,46.87651062
2656,-2.86107254,-0.859652162,5.325264931,-18.61392021,225.9588928,57.088974
2657,-4.786268711,-1.992345095,7.974331856,-76.17922974,222.8059387,60.89962006
2658,-5.585296154,-2.527186155,10.27491379,-108.8207855,194.3407593,48.36765671
2659,-5.232507229,-2.750089407,9.673214912,-85.34199524,143.0181122,47.49851608
2660,-4.075227737,-4.011519432,10.98052788,-48.31216049,121.9769745,37.51494598
2661,-4.147648335,-3.886518955,8.548061371,2.068508387,89.84283447,29.42327309
2662,-4.249615669,-2.827867985,9.382807732,41.77190781,58.51999664,12.65443516
2663,-5.17555809,-0.058167987,8.465127945,50.53422928,35.57625198,-2.636830807
2664,-1.677128673,-1.995401025,10.15207481,0.585173368,-5.59784174,2.623867512
2665,-4.134345055,-2.262256622,10.12602711,1.393282533,-24.808815,4.863964081
2666,-4.48706007,-2.828281641,10.55846977,-0.674841821,-43.93636703,-8.783725739
2667,-1.993108869,-2.60035038,10.46552467,8.302853584,-65.09163666,-20.42570496
2668,-2.042257547,-2.735551834,10.99846172,14.7607832,-88.59632111,-26.7912178
2669,-2.529630184,-2.934437037,11.1501255,9.013196945,-112.0638428,-25.59977531
2670,-2.408942938,-3.080812693,11.74084759,-5.345554829,-130.878891,-22.16053009
2671,-1.39191246,-3.640710592,12.39170456,-15.04890347,-147.3270264,-23.11873055
2672,-1.306603789,-4.286867619,12.1142292,-9.333110809,-159.0388641,-31.73863983
2673,-1.079407692,-4.004131317,12.73260212,3.074540138,-172.3020172,-37.79309464
2674,0.342878193,-3.609060049,12.45253658,18.35010529,-194.3670349,-43.60636139
2675,2.20796442,-3.004599571,12.21796417,24.59269905,-213.9008789,-34.99201584
2676,3.391222239,-3.739479542,11.42807865,32.1046524,-222.5545197,-31.93960381
2677,4.198631287,-3.407768488,10.23835182,50.9085083,-229.2174683,-21.9343338
2678,6.062092781,-0.766504049,9.971607208,61.5995903,-220.4660645,-19.50673103
2679,7.095675945,-0.596245289,9.979762077,53.15394974,-216.9197083,-15.1408577
2680,6.339967728,-2.335454226,9.59145546,23.9411869,-203.4889526,-11.97977352
2681,7.032305241,-2.180266857,10.2404747,14.37547016,-199.9272614,-23.95028877
2682,9.002202034,-1.98532033,11.50643158,3.626219511,-196.497467,-29.90837669
2683,9.238920212,-1.660063148,11.68757343,-6.715524197,-200.0111847,-24.59951782
2684,9.47633934,-2.908767939,10.40482712,-11.63589954,-192.8559113,-21.39046288
2685,9.95505619,-3.992137194,9.620265007,-7.443367958,-155.9767456,-20.24582863
2686,10.93248081,-4.465335369,11.59569836,-4.373195171,-105.650322,-20.05408478
2687,10.81197453,-1.905728817,9.466691971,-5.019947052,-51.22436523,-15.05246639
2688,9.844181061,-2.074684858,8.04311657,-34.13766861,-3.387345791,-9.797067642
2689,9.25647831,-2.28604269,6.390284061,-25.56842804,10.92072105,-4.606283665
2690,8.458977699,-2.041599274,4.782349586,18.69563103,-15.34983063,1.094740391
2691,9.369703293,-1.642677784,2.11683774,34.19679642,-36.05955505,-0.938463867
2692,11.05761528,-0.394062728,-0.59638077,18.46319389,2.547621489,0.714966536
2693,7.020489216,0.596834719,-0.921205759,48.52745056,48.71100616,-6.336771488
2694,9.197552681,-0.010465293,4.900137424,-34.8349762,72.55711365,-2.544462442
2695,5.465690613,-0.349938542,1.204004645,-154.442276,126.1625824,22.65699005
2696,-1.181399345,0.931666911,-5.26216507,-40.2638855,101.5910339,18.08105659
2697,-1.541378856,-1.070688725,1.809879541,-1.811206698,98.59294891,5.651188374
2698,1.048109055,-0.257599294,4.62405014,-14.79531384,107.6082611,17.74428749
